timestamp,quatX,quatY,quatZ,quatW,angVelX,angVelY,angVelZ,linAccelPlusGX,linAccelPlusGY,linAccelPlusGZ,linAccelX,linAccelY,linAccelZ
1594154852334,-0.75152587890625,0.02520751953125,0.00872802734375,0.6591796875,1.5,1.5625,0.1875,-0.439999997615814,-9.77000045776367,-1.32000005245209,0,-0.059999998658896,-0.029999999329448
1594154852362,-0.7513427734375,0.02520751953125,0.0086669921875,0.65936279296875,1.25,0.4375,-0.0625,-0.400000005960465,-9.82999992370606,-1.28999996185303,0.03999999910593,-0.119999997317791,-0.009999999776483
1594154852387,-0.75164794921875,0.025146484375,0.00860595703125,0.65899658203125,-4.125,-0.5625,-1.1875,-0.379999995231628,-9.81999969482422,-1.30999994277954,0.059999998658896,-0.100000001490116,-0.019999999552965
1594154852423,-0.7525634765625,0.0245361328125,0.008544921875,0.65802001953125,-5.5625,-1.5,-2.3125,-0.389999985694885,-9.71000003814697,-1.32000005245209,0.009999999776483,-0.119999997317791,-0.050000000745058
1594154852437,-0.75311279296875,0.02398681640625,0.00848388671875,0.65740966796875,-4.9375,-1.875,-2.9375,-0.379999995231628,-9.89999961853027,-1.26999998092651,0.03999999910593,-0.200000002980232,0.050000000745058
1594154852458,-0.75396728515625,0.0233154296875,0.00830078125,0.65643310546875,-8.6875,-1.5625,-3.8125,-0.479999989271164,-9.64999961853027,-1.42999994754791,-0.059999998658896,0.050000000745058,-0.079999998211861
1594154852486,-0.7550048828125,0.02252197265625,0.0079345703125,0.6552734375,-7.3125,0.3125,-3.4375,-0.439999997615814,-9.89999961853027,-1.05999994277954,-0.029999999329448,-0.200000002980232,0.319999992847443
1594154852507,-0.756103515625,0.0223388671875,0.00762939453125,0.654052734375,-10.75,1.4375,-2.3125,-0.490000009536743,-9.69999980926514,-1.29999995231628,-0.090000003576279,-0.009999999776483,0.109999999403954
1594154852535,-0.7574462890625,0.0223388671875,0.00689697265625,0.6524658203125,-6.8125,2.8125,-2.3125,-0.490000009536743,-9.60999965667725,-1.35000002384186,-0.100000001490116,0.070000000298023,0.090000003576279
1594154852558,-0.7579345703125,0.0223388671875,0.00634765625,0.65185546875,-3.5625,2.3125,-2.4375,-0.529999971389771,-9.60000038146973,-1.48000001907349,-0.150000005960464,0.079999998211861,-0.009999999776483
1594154852586,-0.7578125,0.0223388671875,0.00592041015625,0.65203857421875,4,1.0625,-0.9375,-0.5,-9.57999992370606,-1.5,-0.119999997317791,0.100000001490116,-0.029999999329448
1594154852608,-0.7569580078125,0.02252197265625,0.0057373046875,0.65301513671875,8.8125,1.25,0.375,-0.430000007152557,-9.72000026702881,-1.37999999523163,-0.050000000745058,-0.029999999329448,0.050000000745058
1594154852638,-0.7554931640625,0.022705078125,0.005615234375,0.65472412109375,8.3125,0.125,0.25,-0.409999996423721,-9.84000015258789,-1.38999998569489,-0.03999999910593,-0.140000000596046,0
1594154852663,-0.7548828125,0.02264404296875,0.005615234375,0.65545654296875,4.6875,-0.8125,-0.3125,-0.340000003576279,-9.75,-1.35000002384186,0.029999999329448,-0.050000000745058,0.019999999552965
1594154852685,-0.75408935546875,0.0224609375,0.00579833984375,0.6563720703125,5.25,-0.6875,-0.125,-0.349999994039535,-9.82999992370606,-1.30999994277954,0.009999999776483,-0.119999997317791,0.03999999910593
1594154852708,-0.75372314453125,0.0224609375,0.0057373046875,0.65673828125,1.625,0.125,-0.6875,-0.400000005960465,-9.89999961853027,-1.25,-0.019999999552965,-0.200000002980232,0.090000003576279
1594154852738,-0.75396728515625,0.02264404296875,0.00555419921875,0.656494140625,-1.75,1.875,0.5625,-0.430000007152557,-9.71000003814697,-1.36000001430511,-0.059999998658896,-0.009999999776483,-0.009999999776483
1594154852757,-0.7540283203125,0.02294921875,0.00531005859375,0.6563720703125,-0.125,2.375,0.625,-0.419999986886978,-9.77999973297119,-1.44000005722046,-0.050000000745058,-0.079999998211861,-0.079999998211861
1594154852786,-0.75408935546875,0.0235595703125,0.00506591796875,0.65631103515625,-0.75,2.5625,1.75,-0.340000003576279,-9.8100004196167,-1.41999995708466,0.019999999552965,-0.109999999403954,-0.059999998658896
1594154852807,-0.75421142578125,0.02410888671875,0.0048828125,0.65618896484375,-0.75,3,1.625,-0.230000004172325,-9.63000011444092,-1.5,0.140000000596046,0.059999998658896,-0.140000000596046
1594154852843,-0.75390625,0.024658203125,0.00457763671875,0.656494140625,3.1875,1.8125,0.6875,-0.330000013113022,-9.81999969482422,-1.33000004291534,0.03999999910593,-0.119999997317791,0.009999999776483
1594154852858,-0.753662109375,0.02484130859375,0.00439453125,0.65673828125,1.625,1.5625,0.3125,-0.349999994039535,-9.80000019073486,-1.33000004291534,0.019999999552965,-0.100000001490116,0
1594154852886,-0.75335693359375,0.025146484375,0.0040283203125,0.65716552734375,2.4375,1.75,0.25,-0.360000014305115,-9.76000022888184,-1.22000002861023,0.009999999776483,-0.050000000745058,0.109999999403954
1594154852911,-0.75311279296875,0.0252685546875,0.00384521484375,0.65740966796875,1.3125,1.125,0.5625,-0.430000007152557,-9.77000045776367,-1.21000003814697,-0.03999999910593,-0.059999998658896,0.109999999403954
1594154852937,-0.75311279296875,0.02557373046875,0.00372314453125,0.65740966796875,0,1.1875,1.1875,-0.370000004768372,-9.72000026702881,-1.28999996185303,0,-0.009999999776483,0.029999999329448
1594154852957,-0.7530517578125,0.02593994140625,0.003662109375,0.65740966796875,0.0625,1.5,1.25,-0.330000013113022,-9.72000026702881,-1.22000002861023,0.050000000745058,-0.019999999552965,0.100000001490116
1594154852986,-0.75299072265625,0.026123046875,0.0035400390625,0.657470703125,0.5,0.625,0.25,-0.379999995231628,-9.72999954223633,-1.17999994754791,0,-0.019999999552965,0.140000000596046
1594154853008,-0.75299072265625,0.026123046875,0.0035400390625,0.65753173828125,0.25,0.25,0,-0.449999988079071,-9.71000003814697,-1.23000001907349,-0.070000000298023,0,0.090000003576279
1594154853037,-0.75286865234375,0.02618408203125,0.0035400390625,0.6575927734375,0.0625,0.4375,0.0625,-0.430000007152557,-9.78999996185303,-1.20000004768372,-0.03999999910593,-0.079999998211861,0.109999999403954
1594154853067,-0.75286865234375,0.02618408203125,0.0035400390625,0.65765380859375,-0.875,-0.375,0.25,-0.349999994039535,-9.75,-1.27999997138977,0.029999999329448,-0.03999999910593,0.03999999910593
1594154853087,-0.7530517578125,0.02606201171875,0.00372314453125,0.65740966796875,-1.1875,-1.625,-0.0625,-0.379999995231628,-9.65999984741211,-1.3400000333786,0,0.03999999910593,-0.009999999776483
1594154853137,-0.7528076171875,0.0250244140625,0.00390625,0.65771484375,3.9375,-3.0625,-1.6875,-0.370000004768372,-9.84000015258789,-1.26999998092651,0,-0.119999997317791,0.029999999329448
1594154853160,-0.75238037109375,0.0242919921875,0.00421142578125,0.65826416015625,1.4375,-2.375,-1.125,-0.370000004768372,-9.84000015258789,-1.25,0,-0.129999995231628,0.050000000745058
1594154853190,-0.75250244140625,0.0240478515625,0.00433349609375,0.65814208984375,-1.75,-0.4375,-0.375,-0.330000013113022,-9.73999977111816,-1.3400000333786,0.029999999329448,-0.029999999329448,-0.029999999329448
1594154853208,-0.75262451171875,0.024169921875,0.0042724609375,0.657958984375,-0.875,1.25,0.1875,-0.409999996423721,-9.64999961853027,-1.44000005722046,-0.029999999329448,0.050000000745058,-0.129999995231628
1594154853237,-0.7525634765625,0.02447509765625,0.0040283203125,0.65802001953125,1.125,3.1875,1.0625,-0.370000004768372,-9.76000022888184,-1.3400000333786,0,-0.050000000745058,-0.029999999329448
1594154853258,-0.75250244140625,0.02532958984375,0.0035400390625,0.6580810546875,0.0625,4.0625,1.75,-0.379999995231628,-9.64000034332275,-1.4099999666214,0,0.059999998658896,-0.090000003576279
1594154853287,-0.75225830078125,0.0262451171875,0.0030517578125,0.65838623046875,2.9375,3.1875,1.0625,-0.430000007152557,-9.76000022888184,-1.3400000333786,-0.050000000745058,-0.050000000745058,-0.029999999329448
1594154853309,-0.751953125,0.02655029296875,0.0028076171875,0.65869140625,2,1.9375,0.375,-0.400000005960465,-9.75,-1.35000002384186,-0.009999999776483,-0.03999999910593,-0.059999998658896
1594154853346,-0.75189208984375,0.02685546875,0.002685546875,0.65869140625,0.1875,0.875,0.625,-0.409999996423721,-9.69999980926514,-1.3400000333786,-0.019999999552965,0.009999999776483,-0.03999999910593
1594154853360,-0.75189208984375,0.0269775390625,0.00274658203125,0.65869140625,0.5,0.1875,1,-0.490000009536743,-9.78999996185303,-1.27999997138977,-0.100000001490116,-0.070000000298023,0.009999999776483
1594154853390,-0.7520751953125,0.02740478515625,0.00286865234375,0.65850830078125,-2.1875,1.75,1.9375,-0.550000011920929,-9.86999988555908,-1.22000002861023,-0.150000005960464,-0.159999996423721,0.070000000298023
1594154853410,-0.75262451171875,0.02813720703125,0.002685546875,0.65789794921875,-5.5,4.25,2.6875,-0.340000003576279,-9.72000026702881,-1.28999996185303,0.050000000745058,-0.009999999776483,0.019999999552965
1594154853438,-0.75311279296875,0.0289306640625,0.0023193359375,0.6572265625,-0.4375,4.625,0.8125,-0.349999994039535,-9.5600004196167,-1.35000002384186,0.03999999910593,0.129999995231628,-0.019999999552965
1594154853458,-0.75299072265625,0.02947998046875,0.00177001953125,0.65740966796875,2.5,4.1875,0.375,-0.419999986886978,-9.72000026702881,-1.33000004291534,-0.009999999776483,-0.009999999776483,0
1594154853490,-0.75213623046875,0.030517578125,0.0009765625,0.65826416015625,0.375,3.8125,2.4375,-0.649999976158142,-10.1400003433228,-1.00999999046326,-0.239999994635582,-0.430000007152557,0.28999999165535
1594154853508,-0.7530517578125,0.03167724609375,0.00079345703125,0.6572265625,-10.8125,6.25,4.5,-0.409999996423721,-9.86999988555908,-1.11000001430511,0,-0.159999996423721,0.209999993443489
1594154853544,-0.75506591796875,0.03399658203125,-0.0001220703125,0.65472412109375,-10.25,9.3125,3.8125,-0.259999990463257,-9.39000034332275,-1.4099999666214,0.170000001788139,0.28999999165535,-0.009999999776483
1594154853559,-0.75537109375,0.03497314453125,-0.0006103515625,0.65435791015625,-0.0625,5.25,1.6875,-0.330000013113022,-9.36999988555908,-1.53999996185303,0.100000001490116,0.319999992847443,-0.129999995231628
1594154853588,-0.75457763671875,0.03521728515625,-0.00079345703125,0.6552734375,9.75,0.375,0.125,-0.370000004768372,-9.44999980926514,-1.64999997615814,0.050000000745058,0.180000007152557,-0.109999999403954
1594154853608,-0.752685546875,0.03497314453125,-0.00067138671875,0.657470703125,19.625,-2.6875,-0.5,-0.449999988079071,-9.71000003814697,-1.26999998092651,-0.009999999776483,0,0.009999999776483
1594154853638,-0.7491455078125,0.03411865234375,-6.103515625E-05,0.66156005859375,19.75,-4.75,-1.25,-0.479999989271164,-9.92000007629395,-1.11000001430511,0,-0.270000010728836,0.03999999910593
1594154853659,-0.74737548828125,0.03338623046875,0.00042724609375,0.66357421875,11.375,-5.9375,-0.625,-0.409999996423721,-10.0100002288818,-1.0900000333786,0.019999999552965,-0.280000001192093,0.050000000745058
1594154853690,-0.74603271484375,0.03240966796875,0.0013427734375,0.6651611328125,4.6875,-5,-0.125,-0.389999985694885,-9.89999961853027,-1.0900000333786,0,-0.100000001490116,0.019999999552965
1594154853733,-0.74615478515625,0.03173828125,0.002685546875,0.6650390625,-4.3125,-2.3125,2.1875,-0.689999997615814,-10.1899995803833,-0.899999976158142,-0.239999994635582,-0.46000000834465,0.219999998807907
1594154853758,-0.74737548828125,0.0323486328125,0.0032958984375,0.66363525390625,-15.375,1.375,4.6875,-0.439999997615814,-9.84000015258789,-1,0.019999999552965,-0.119999997317791,0.189999997615814
1594154853808,-0.75213623046875,0.034912109375,0.00311279296875,0.6580810546875,-8.5625,3.375,1.125,-0.479999989271164,-9.44999980926514,-1.61000001430511,0,0.239999994635582,-0.300000011920929
1594154853835,-0.75213623046875,0.0350341796875,0.00299072265625,0.6580810546875,1.5625,-0.5,-0.3125,-0.379999995231628,-9.65999984741211,-1.38999998569489,0.109999999403954,0.03999999910593,-0.079999998211861
1594154853858,-0.7518310546875,0.03472900390625,0.00299072265625,0.658447265625,3.9375,-1.3125,-1.1875,-0.430000007152557,-9.60999965667725,-1.3400000333786,0.050000000745058,0.090000003576279,-0.03999999910593
1594154853883,-0.75067138671875,0.033935546875,0.0030517578125,0.65985107421875,7.75,-3,-2.25,-0.479999989271164,-9.93000030517578,-1.17999994754791,0,-0.219999998807907,0.079999998211861
1594154853907,-0.75,0.0333251953125,0.003173828125,0.66058349609375,4.5625,-2.75,-1.875,-0.469999998807907,-9.8100004196167,-1.19000005722046,0,-0.100000001490116,0.050000000745058
1594154853933,-0.74951171875,0.0328369140625,0.0032958984375,0.66119384765625,3.6875,-1.625,-0.6875,-0.490000009536743,-9.80000019073486,-1.19000005722046,-0.009999999776483,-0.079999998211861,0.03999999910593
1594154853958,-0.74908447265625,0.03265380859375,0.00347900390625,0.66162109375,3,-1.5,0.25,-0.5,-9.84000015258789,-1.14999997615814,-0.029999999329448,-0.129999995231628,0.059999998658896
1594154853989,-0.7490234375,0.03271484375,0.00372314453125,0.6617431640625,0.0625,-0.75,0.9375,-0.509999990463257,-9.80000019073486,-1.13999998569489,-0.029999999329448,-0.079999998211861,0.059999998658896
1594154854012,-0.74859619140625,0.032470703125,0.00396728515625,0.66217041015625,1.9375,-1.125,-0.625,-0.479999989271164,-9.78999996185303,-1.17999994754791,0,-0.070000000298023,0.009999999776483
1594154854041,-0.7484130859375,0.03228759765625,0.00390625,0.66241455078125,2.3125,0.125,-1.125,-0.579999983310699,-9.81999969482422,-1.12999999523163,-0.109999999403954,-0.090000003576279,0.059999998658896
1594154854058,-0.7481689453125,0.03216552734375,0.00372314453125,0.6627197265625,1.75,0.8125,-1.25,-0.560000002384186,-9.81999969482422,-1.08000004291534,-0.090000003576279,-0.100000001490116,0.100000001490116
1594154854091,-0.7479248046875,0.0323486328125,0.00299072265625,0.6629638671875,2.4375,2.0625,-1.1875,-0.490000009536743,-9.6899995803833,-1.21000003814697,-0.029999999329448,0.019999999552965,-0.019999999552965
1594154854108,-0.74774169921875,0.03240966796875,0.0028076171875,0.6632080078125,3.1875,1.875,-0.875,-0.540000021457672,-9.72000026702881,-1.20000004768372,-0.070000000298023,0,-0.019999999552965
1594154854132,-0.74737548828125,0.03271484375,0.00238037109375,0.66357421875,1.75,2.125,-0.5625,-0.479999989271164,-9.77000045776367,-1.14999997615814,-0.019999999552965,-0.03999999910593,0.009999999776483
1594154854165,-0.74713134765625,0.03277587890625,0.0020751953125,0.663818359375,1.9375,1.625,-1.125,-0.560000002384186,-9.80000019073486,-1.1599999666214,-0.070000000298023,-0.079999998211861,0
1594154854190,-0.74725341796875,0.03302001953125,0.00152587890625,0.6636962890625,-1.5625,2.875,-0.625,-0.430000007152557,-9.64000034332275,-1.25999999046326,0.009999999776483,0.079999998211861,-0.090000003576279
1594154854208,-0.747314453125,0.033447265625,0.00103759765625,0.66357421875,0,4.0625,-0.125,-0.430000007152557,-9.61999988555908,-1.28999996185303,0.019999999552965,0.090000003576279,-0.119999997317791
1594154854236,-0.7469482421875,0.0341796875,0.00018310546875,0.66400146484375,3.25,4.125,0.1875,-0.439999997615814,-9.76000022888184,-1.20000004768372,0,-0.03999999910593,-0.03999999910593
1594154854257,-0.74676513671875,0.03466796875,-0.0003662109375,0.6641845703125,1.1875,4.1875,-0.0625,-0.46000000834465,-9.76000022888184,-1.20000004768372,-0.009999999776483,-0.029999999329448,-0.03999999910593
1594154854283,-0.746337890625,0.0352783203125,-0.00115966796875,0.6646728515625,4.3125,3.4375,-0.1875,-0.349999994039535,-9.75,-1.16999995708466,0.079999998211861,-0.019999999552965,-0.029999999329448
1594154854307,-0.745849609375,0.03564453125,-0.0015869140625,0.6651611328125,3.125,3,0.5,-0.419999986886978,-9.85999965667725,-0.930000007152557,0.009999999776483,-0.129999995231628,0.189999997615814
1594154854342,-0.7457275390625,0.035888671875,-0.0020751953125,0.665283203125,0.625,0.75,-0.6875,-0.46000000834465,-9.71000003814697,-1.12000000476837,-0.029999999329448,0.019999999552965,0
1594154854358,-0.74560546875,0.03582763671875,-0.00213623046875,0.6654052734375,1.8125,0.4375,-0.9375,-0.479999989271164,-9.72000026702881,-1.10000002384186,-0.03999999910593,0,0.009999999776483
1594154854382,-0.7452392578125,0.03564453125,-0.00238037109375,0.6658935546875,1.875,0.875,-1.4375,-0.540000021457672,-9.8100004196167,-0.980000019073486,-0.109999999403954,-0.079999998211861,0.119999997317791
1594154854407,-0.74517822265625,0.03570556640625,-0.00274658203125,0.6658935546875,-0.0625,1.9375,-1.375,-0.5,-9.69999980926514,-1.03999996185303,-0.079999998211861,0.019999999552965,0.059999998658896
1594154854440,-0.7447509765625,0.035888671875,-0.00341796875,0.66632080078125,3.3125,2.6875,-0.9375,-0.439999997615814,-9.81999969482422,-1.05999994277954,0.009999999776483,-0.100000001490116,0.100000001490116
1594154854458,-0.7445068359375,0.03619384765625,-0.0037841796875,0.6666259765625,1.75,2.8125,-0.5,-0.409999996423721,-9.85000038146973,-1.02999997138977,0,-0.109999999403954,0.050000000745058
1594154854483,-0.74444580078125,0.0362548828125,-0.004150390625,0.66668701171875,-0.3125,0.375,-1.0625,-0.400000005960465,-9.82999992370606,-1.04999995231628,0.009999999776483,-0.090000003576279,0.029999999329448
1594154854508,-0.7445068359375,0.03607177734375,-0.0042724609375,0.6666259765625,-0.6875,-0.625,-1.5625,-0.370000004768372,-9.77000045776367,-1.0900000333786,0.029999999329448,-0.03999999910593,0
1594154854538,-0.74456787109375,0.03546142578125,-0.00421142578125,0.66656494140625,0,-2.1875,-1.75,-0.409999996423721,-9.78999996185303,-1.10000002384186,-0.009999999776483,-0.050000000745058,0
1594154854558,-0.74456787109375,0.0350341796875,-0.004150390625,0.66656494140625,0.0625,-1.625,-1.3125,-0.310000002384186,-9.77999973297119,-1.05999994277954,0.079999998211861,-0.03999999910593,0.019999999552965
1594154854585,-0.74456787109375,0.03460693359375,-0.00421142578125,0.6666259765625,0.6875,-0.875,-1.5625,-0.400000005960465,-9.71000003814697,-1.16999995708466,-0.009999999776483,0.019999999552965,-0.079999998211861
1594154854609,-0.7445068359375,0.0343017578125,-0.00433349609375,0.66668701171875,0.6875,-0.6875,-2.0625,-0.430000007152557,-9.75,-1.12000000476837,-0.050000000745058,-0.019999999552965,-0.029999999329448
1594154854634,-0.7445068359375,0.0340576171875,-0.00469970703125,0.66668701171875,0.3125,1.125,-1.5625,-0.449999988079071,-9.75,-1.08000004291534,-0.079999998211861,-0.009999999776483,0
1594154854659,-0.74456787109375,0.03411865234375,-0.005126953125,0.66668701171875,-0.4375,2.5625,-1.0625,-0.469999998807907,-9.71000003814697,-1.10000002384186,-0.100000001490116,0.019999999552965,-0.009999999776483
1594154854685,-0.74444580078125,0.034912109375,-0.005859375,0.66668701171875,1.25,4.625,0.625,-0.409999996423721,-9.63000011444092,-1.11000001430511,-0.03999999910593,0.100000001490116,-0.029999999329448
1594154854707,-0.744140625,0.03564453125,-0.00628662109375,0.6669921875,3.1875,4.5625,1.75,-0.449999988079071,-9.72999954223633,-1.07000005245209,-0.079999998211861,0,0
1594154854736,-0.74365234375,0.0367431640625,-0.00677490234375,0.66748046875,1.3125,4.1875,1.8125,-0.469999998807907,-9.8100004196167,-1.01999998092651,-0.090000003576279,-0.070000000298023,0.03999999910593
1594154854758,-0.74365234375,0.03753662109375,-0.00714111328125,0.66748046875,-0.5,5.25,2.3125,-0.330000013113022,-9.73999977111816,-1.05999994277954,0.050000000745058,0,0
1594154854808,-0.7432861328125,0.0391845703125,-0.00762939453125,0.66778564453125,1.375,1.25,1.75,-0.319999992847443,-9.84000015258789,-0.959999978542328,0.079999998211861,-0.100000001490116,0.090000003576279
1594154854840,-0.7432861328125,0.03961181640625,-0.007568359375,0.66778564453125,-0.125,0.75,1.125,-0.300000011920929,-9.69999980926514,-1.19000005722046,0.100000001490116,0.029999999329448,-0.129999995231628
1594154854858,-0.74310302734375,0.039794921875,-0.00750732421875,0.66796875,2.25,0.375,1.3125,-0.25,-9.71000003814697,-1.12999999523163,0.150000005960464,0.019999999552965,-0.079999998211861
1594154854885,-0.742431640625,0.03985595703125,-0.0072021484375,0.668701171875,4.3125,-1.8125,0.6875,-0.310000002384186,-9.82999992370606,-1.04999995231628,0.100000001490116,-0.079999998211861,-0.009999999776483
1594154854910,-0.741943359375,0.03948974609375,-0.00689697265625,0.66925048828125,4.375,-3.125,-0.625,-0.370000004768372,-9.85000038146973,-0.990000009536743,0.03999999910593,-0.109999999403954,0.019999999552965
1594154854943,-0.74127197265625,0.03900146484375,-0.0064697265625,0.6700439453125,3.875,-2.5,-0.25,-0.370000004768372,-9.88000011444092,-0.879999995231628,0,-0.119999997317791,0.119999997317791
1594154854957,-0.74090576171875,0.03875732421875,-0.00616455078125,0.67041015625,2.5625,-2.1875,0.375,-0.509999990463257,-9.85999965667725,-0.810000002384186,-0.090000003576279,-0.109999999403954,0.170000001788139
1594154854984,-0.7408447265625,0.03826904296875,-0.00567626953125,0.6705322265625,-0.625,-2.625,-0.5,-0.439999997615814,-9.76000022888184,-0.930000007152557,-0.009999999776483,-0.019999999552965,0.050000000745058
1594154855012,-0.7408447265625,0.0380859375,-0.0054931640625,0.6705322265625,0.5625,-1.0625,0,-0.439999997615814,-9.75,-0.980000019073486,-0.029999999329448,0.03999999910593,0
1594154855043,-0.7406005859375,0.0380859375,-0.0054931640625,0.67083740234375,1.6875,-0.3125,-0.25,-0.490000009536743,-9.75,-1.00999999046326,-0.070000000298023,0,-0.029999999329448
1594154855059,-0.7403564453125,0.0379638671875,-0.005615234375,0.67108154296875,2.5,0.1875,-0.9375,-0.490000009536743,-9.77999973297119,-1.00999999046326,-0.070000000298023,-0.029999999329448,-0.03999999910593
1594154855086,-0.73992919921875,0.0380859375,-0.006103515625,0.67156982421875,2.1875,1.875,-0.8125,-0.509999990463257,-9.77000045776367,-1.03999996185303,-0.100000001490116,-0.019999999552965,-0.079999998211861
1594154855107,-0.73974609375,0.03802490234375,-0.00628662109375,0.67181396484375,2.25,0.4375,-1.25,-0.400000005960465,-9.80000019073486,-0.959999978542328,0,-0.050000000745058,0
1594154855135,-0.73944091796875,0.03778076171875,-0.00640869140625,0.67218017578125,1.875,-0.8125,-0.8125,-0.400000005960465,-9.77000045776367,-0.959999978542328,0,-0.019999999552965,-0.009999999776483
1594154855158,-0.73919677734375,0.03741455078125,-0.00628662109375,0.67242431640625,1.875,-2.375,-1,-0.389999985694885,-9.80000019073486,-0.939999997615814,0.009999999776483,-0.050000000745058,0
1594154855187,-0.739013671875,0.03668212890625,-0.005859375,0.67266845703125,1.5,-3.5,-0.75,-0.400000005960465,-9.69999980926514,-1.01999998092651,0,0.050000000745058,-0.090000003576279
1594154855211,-0.73870849609375,0.03619384765625,-0.00555419921875,0.67303466796875,2.75,-3.0625,-1.25,-0.319999992847443,-9.78999996185303,-0.889999985694885,0.070000000298023,-0.03999999910593,0.019999999552965
1594154855259,-0.73797607421875,0.03460693359375,-0.0050048828125,0.67388916015625,1.375,-4.125,-2.125,-0.28999999165535,-9.85000038146973,-0.9200000166893,0.090000003576279,-0.100000001490116,-0.019999999552965
1594154855285,-0.73785400390625,0.0335693359375,-0.004638671875,0.67413330078125,1.3125,-3.75,-2.3125,-0.25,-9.78999996185303,-0.9200000166893,0.109999999403954,-0.029999999329448,-0.019999999552965
1594154855308,-0.73760986328125,0.03277587890625,-0.00439453125,0.6744384765625,2.625,-4.5625,-2.4375,-0.360000014305115,-9.89999961853027,-0.829999983310699,0,-0.140000000596046,0.050000000745058
1594154855361,-0.7374267578125,0.0302734375,-0.003173828125,0.67474365234375,0.6875,-7.25,-2.5625,-0.330000013113022,-9.78999996185303,-0.910000026226044,0.009999999776483,-0.029999999329448,-0.029999999329448
1594154855391,-0.7371826171875,0.02838134765625,-0.00225830078125,0.675048828125,1.875,-7.75,-2.875,-0.5,-9.67000007629395,-0.870000004768372,-0.150000005960464,0.079999998211861,0
1594154855408,-0.73699951171875,0.02716064453125,-0.00177001953125,0.67535400390625,2.0625,-7.0625,-3.375,-0.219999998807907,-9.80000019073486,-0.879999995231628,0.100000001490116,-0.03999999910593,-0.019999999552965
1594154855437,-0.7366943359375,0.025634765625,-0.0009765625,0.67572021484375,0.75,-6,-2.6875,-0.379999995231628,-9.80000019073486,-0.879999995231628,-0.059999998658896,-0.03999999910593,-0.029999999329448
1594154855458,-0.7366943359375,0.024658203125,-0.00054931640625,0.67578125,0.4375,-5.5,-2.75,-0.360000014305115,-9.71000003814697,-0.879999995231628,-0.050000000745058,0.050000000745058,-0.019999999552965
1594154855486,-0.73638916015625,0.0233154296875,-0.00018310546875,0.6761474609375,3.5625,-4.1875,-2.5,-0.349999994039535,-9.77999973297119,-0.800000011920929,-0.050000000745058,-0.009999999776483,0.029999999329448
1594154855521,-0.73577880859375,0.022216796875,6.103515625E-05,0.6768798828125,3.4375,-3.375,-2.5,-0.400000005960465,-9.80000019073486,-0.829999983310699,-0.109999999403954,-0.029999999329448,-0.009999999776483
1594154855536,-0.73541259765625,0.02166748046875,0.0001220703125,0.67724609375,3.0625,-2,-1.6875,-0.330000013113022,-9.88000011444092,-0.75,-0.03999999910593,-0.109999999403954,0.050000000745058
1594154855558,-0.73516845703125,0.02154541015625,6.103515625E-05,0.67755126953125,1.9375,-0.1875,0,-0.319999992847443,-9.89999961853027,-0.680000007152557,-0.029999999329448,-0.129999995231628,0.109999999403954
1594154855586,-0.73492431640625,0.021484375,0.00018310546875,0.67779541015625,1,-1.125,0.0625,-0.239999994635582,-9.84000015258789,-0.779999971389771,0.03999999910593,-0.070000000298023,0
1594154855611,-0.73486328125,0.02130126953125,0.0003662109375,0.67791748046875,0.8125,-1.75,0.125,-0.25,-9.82999992370606,-0.790000021457672,0.029999999329448,-0.059999998658896,0
1594154855638,-0.73486328125,0.02081298828125,0.00079345703125,0.67791748046875,0.0625,-2.9375,-0.875,-0.25,-9.77000045776367,-0.819999992847443,0.029999999329448,0,-0.029999999329448
1594154855658,-0.73468017578125,0.02008056640625,0.0009765625,0.6781005859375,1.875,-4,-2.625,-0.28999999165535,-9.82999992370606,-0.759999990463257,-0.009999999776483,-0.059999998658896,0.019999999552965
1594154855708,-0.73406982421875,0.017578125,0.00140380859375,0.6788330078125,2.3125,-5.4375,-3.8125,-0.200000002980232,-9.78999996185303,-0.75,0.050000000745058,-0.009999999776483,0.009999999776483
1594154855737,-0.73358154296875,0.01580810546875,0.00201416015625,0.67938232421875,2.5625,-7.0625,-3.25,-0.280000001192093,-9.81999969482422,-0.730000019073486,-0.03999999910593,-0.050000000745058,0.019999999552965
1594154855758,-0.7335205078125,0.014404296875,0.00274658203125,0.67950439453125,0.375,-9.25,-3.375,-0.300000011920929,-9.73999977111816,-0.819999992847443,-0.070000000298023,0.019999999552965,-0.070000000298023
1594154855788,-0.73345947265625,0.01202392578125,0.00421142578125,0.67962646484375,0.9375,-11.3125,-3,-0.170000001788139,-9.77999973297119,-0.759999990463257,0.03999999910593,-0.009999999776483,-0.009999999776483
1594154855808,-0.73309326171875,0.01043701171875,0.00537109375,0.67999267578125,3.625,-10.6875,-1.625,-0.189999997615814,-10,-0.509999990463257,0.009999999776483,-0.219999998807907,0.219999998807907
1594154855837,-0.7330322265625,0.00872802734375,0.00689697265625,0.6800537109375,-4.4375,-6.625,-0.5,-0.340000003576279,-10.0799999237061,-0.370000004768372,-0.129999995231628,-0.310000002384186,0.349999994039535
1594154855857,-0.73388671875,0.0079345703125,0.00738525390625,0.67919921875,-8.125,-5,-1.875,-0.409999996423721,-9.90999984741211,-0.560000002384186,-0.189999997615814,-0.140000000596046,0.180000007152557
1594154855887,-0.7353515625,0.007080078125,0.00775146484375,0.6776123046875,-7.125,-2.5625,-1.4375,-0.129999995231628,-9.53999996185303,-1.02999997138977,0.070000000298023,0.219999998807907,-0.230000004172325
1594154855908,-0.7357177734375,0.00640869140625,0.00787353515625,0.67724609375,-1.3125,-3.5,-3,-0.109999999403954,-9.52999973297119,-1.00999999046326,0.079999998211861,0.230000004172325,-0.200000002980232
1594154855947,-0.73541259765625,0.004638671875,0.007568359375,0.67755126953125,6.0625,-4.375,-5.875,-0.059999998658896,-9.82999992370606,-0.800000011920929,0.090000003576279,-0.059999998658896,-0.009999999776483
1594154855960,-0.73486328125,0.00335693359375,0.00732421875,0.67822265625,5.125,-4.3125,-5.8125,0,-9.80000019073486,-0.800000011920929,0.140000000596046,-0.029999999329448,-0.019999999552965
1594154855986,-0.73431396484375,0.0020751953125,0.00738525390625,0.67877197265625,4.75,-5.8125,-4.8125,-0.159999996423721,-9.78999996185303,-0.870000004768372,-0.029999999329448,-0.019999999552965,-0.100000001490116
1594154856009,-0.7337646484375,0.00042724609375,0.0081787109375,0.6793212890625,1.75,-6.625,-2.1875,-0.100000001490116,-9.85000038146973,-0.689999997615814,0.009999999776483,-0.079999998211861,0.059999998658896
1594154856037,-0.733642578125,-0.0006103515625,0.0087890625,0.67950439453125,1.4375,-6.8125,-1.8125,-0.009999999776483,-9.82999992370606,-0.680000007152557,0.100000001490116,-0.050000000745058,0.059999998658896
1594154856058,-0.73321533203125,-0.001953125,0.00946044921875,0.679931640625,1.375,-4.8125,-2,-0.019999999552965,-9.89000034332275,-0.579999983310699,0.079999998211861,-0.109999999403954,0.140000000596046
1594154856087,-0.733154296875,-0.0029296875,0.009765625,0.67999267578125,0.75,-5.8125,-3.8125,-0.059999998658896,-9.64000034332275,-0.839999973773956,0.019999999552965,0.119999997317791,-0.109999999403954
1594154856112,-0.7327880859375,-0.004638671875,0.0101318359375,0.68035888671875,4,-5.375,-4.1875,-0.059999998658896,-9.60999965667725,-0.810000002384186,0.019999999552965,0.159999996423721,-0.079999998211861
1594154856140,-0.73211669921875,-0.00592041015625,0.0103759765625,0.68109130859375,6.25,-6.75,-4.8125,-0.079999998211861,-9.84000015258789,-0.639999985694885,-0.019999999552965,-0.050000000745058,0.050000000745058
1594154856188,-0.73126220703125,-0.010009765625,0.011962890625,0.68194580078125,-1.375,-10.5625,-4.875,0,-9.78999996185303,-0.709999978542328,0.019999999552965,0,-0.029999999329448
1594154856210,-0.73138427734375,-0.0118408203125,0.0128173828125,0.6817626953125,-0.6875,-11.25,-3.6875,-0.059999998658896,-9.90999984741211,-0.639999985694885,-0.03999999910593,-0.129999995231628,0.03999999910593
1594154856237,-0.7314453125,-0.01446533203125,0.0142822265625,0.68157958984375,-1.3125,-10.875,-3.75,-0.079999998211861,-9.89999961853027,-0.639999985694885,-0.070000000298023,-0.119999997317791,0.050000000745058
1594154856258,-0.73162841796875,-0.01605224609375,0.0150146484375,0.68133544921875,-1.6875,-9.3125,-3.375,0.03999999910593,-9.77999973297119,-0.75,0.03999999910593,0,-0.050000000745058
1594154856288,-0.7315673828125,-0.01800537109375,0.016357421875,0.68133544921875,0.125,-8.6875,-0.875,0,-9.94999980926514,-0.660000026226044,0,-0.170000001788139,0.029999999329448
1594154856308,-0.73162841796875,-0.01904296875,0.017333984375,0.68121337890625,-1.5,-8.8125,-0.5625,0,-9.89000034332275,-0.709999978542328,-0.009999999776483,-0.109999999403954,-0.009999999776483
1594154856339,-0.73187255859375,-0.021240234375,0.01947021484375,0.68084716796875,-0.125,-8.9375,-0.3125,-0.009999999776483,-9.77000045776367,-0.790000021457672,-0.019999999552965,0,-0.090000003576279
1594154856358,-0.73187255859375,-0.021728515625,0.02008056640625,0.68084716796875,0.5625,-9.25,-0.1875,0.009999999776483,-9.78999996185303,-0.730000019073486,0.009999999776483,-0.009999999776483,-0.019999999552965
1594154856390,-0.731689453125,-0.02374267578125,0.022216796875,0.68084716796875,-0.25,-8.625,-0.5625,0.050000000745058,-9.68000030517578,-0.810000002384186,0.050000000745058,0.090000003576279,-0.100000001490116
1594154856409,-0.73162841796875,-0.02423095703125,0.022705078125,0.680908203125,1,-8.4375,-0.5625,0,-9.77999973297119,-0.72000002861023,0,0,-0.019999999552965
1594154856458,-0.7313232421875,-0.0264892578125,0.025146484375,0.6810302734375,-0.3125,-7.75,-0.5625,-0.079999998211861,-9.78999996185303,-0.759999990463257,-0.070000000298023,-0.009999999776483,-0.059999998658896
1594154856488,-0.73114013671875,-0.02801513671875,0.02642822265625,0.68115234375,1.75,-8.375,-1,-0.009999999776483,-9.73999977111816,-0.72000002861023,-0.009999999776483,0.029999999329448,-0.019999999552965
1594154856508,-0.7308349609375,-0.02923583984375,0.02740478515625,0.681396484375,2.3125,-9.0625,-1.25,-0.03999999910593,-9.80000019073486,-0.699999988079071,-0.019999999552965,-0.03999999910593,0.029999999329448
1594154856539,-0.73046875,-0.03076171875,0.02899169921875,0.681640625,0.625,-8,-0.4375,-0.109999999403954,-9.6899995803833,-0.670000016689301,-0.100000001490116,0.079999998211861,0
1594154856558,-0.73040771484375,-0.0316162109375,0.02978515625,0.68157958984375,-0.375,-6.75,-1.375,-0.03999999910593,-9.72000026702881,-0.730000019073486,-0.03999999910593,0.059999998658896,-0.050000000745058
1594154856590,-0.72979736328125,-0.03350830078125,0.03106689453125,0.68212890625,2.0625,-5.8125,-1.5625,-0.009999999776483,-9.77999973297119,-0.639999985694885,-0.019999999552965,0,0.019999999552965
1594154856609,-0.729736328125,-0.03387451171875,0.0313720703125,0.68218994140625,1.0625,-5.8125,-0.9375,0,-9.85000038146973,-0.740000009536743,0,-0.070000000298023,-0.079999998211861
1594154856651,-0.72943115234375,-0.0352783203125,0.032958984375,0.68231201171875,0.125,-6.6875,0.375,0,-9.73999977111816,-0.800000011920929,-0.019999999552965,0.009999999776483,-0.129999995231628
1594154856659,-0.72943115234375,-0.03570556640625,0.033447265625,0.68231201171875,0.75,-7.1875,0.25,-0.019999999552965,-9.76000022888184,-0.779999971389771,-0.019999999552965,0.009999999776483,-0.129999995231628
1594154856688,-0.7291259765625,-0.036865234375,0.0347900390625,0.6824951171875,0.875,-7,0.8125,0.009999999776483,-9.81999969482422,-0.72000002861023,0.019999999552965,-0.03999999910593,-0.070000000298023
1594154856711,-0.72894287109375,-0.03753662109375,0.035888671875,0.68255615234375,0.9375,-7.5,0.75,-0.059999998658896,-9.86999988555908,-0.649999976158142,-0.03999999910593,-0.079999998211861,-0.009999999776483
1594154856732,-0.72882080078125,-0.03857421875,0.03729248046875,0.6826171875,0.875,-6.5,0.875,-0.059999998658896,-9.82999992370606,-0.670000016689301,-0.03999999910593,-0.03999999910593,-0.029999999329448
1594154856757,-0.72857666015625,-0.03912353515625,0.03814697265625,0.6827392578125,1.5,-6,1.0625,-0.050000000745058,-9.85999965667725,-0.569999992847443,-0.029999999329448,-0.079999998211861,0.050000000745058
1594154856784,-0.728515625,-0.03997802734375,0.0394287109375,0.68267822265625,-0.1875,-5.6875,1.1875,-0.070000000298023,-9.82999992370606,-0.629999995231628,-0.03999999910593,-0.03999999910593,0
1594154856807,-0.728515625,-0.04052734375,0.04022216796875,0.68267822265625,-0.375,-5.625,0.75,-0.029999999329448,-9.81999969482422,-0.550000011920929,0,-0.029999999329448,0.070000000298023
1594154856841,-0.72845458984375,-0.0416259765625,0.0413818359375,0.6826171875,0.75,-7.5,-0.1875,0.059999998658896,-9.75,-0.680000007152557,0.090000003576279,0.019999999552965,-0.050000000745058
1594154856859,-0.728271484375,-0.04254150390625,0.04229736328125,0.6826171875,0.875,-8.25,-0.1875,0.050000000745058,-9.77000045776367,-0.680000007152557,0.079999998211861,0.009999999776483,-0.050000000745058
1594154856882,-0.72796630859375,-0.044189453125,0.0440673828125,0.6827392578125,1.75,-9.875,-0.5,-0.070000000298023,-9.81999969482422,-0.620000004768372,-0.029999999329448,-0.029999999329448,0
1594154856934,-0.7276611328125,-0.04736328125,0.046875,0.6827392578125,-0.875,-9.6875,-0.75,-0.070000000298023,-9.77000045776367,-0.740000009536743,-0.03999999910593,0.009999999776483,-0.119999997317791
1594154856983,-0.72723388671875,-0.0504150390625,0.04974365234375,0.6827392578125,3.25,-9.25,-0.8125,-0.159999996423721,-9.76000022888184,-0.709999978542328,-0.119999997317791,0.009999999776483,-0.100000001490116
1594154857009,-0.726806640625,-0.0513916015625,0.0506591796875,0.68304443359375,2.875,-7.375,-0.8125,-0.109999999403954,-9.78999996185303,-0.600000023841858,-0.079999998211861,0,0
1594154857033,-0.72613525390625,-0.05230712890625,0.0516357421875,0.68365478515625,3.75,-4.75,0.5,-0.129999995231628,-9.94999980926514,-0.469999998807907,-0.100000001490116,-0.170000001788139,0.109999999403954
1594154857058,-0.7259521484375,-0.05291748046875,0.05230712890625,0.6837158203125,-0.1875,-5.6875,0.1875,0,-9.81999969482422,-0.589999973773956,0.029999999329448,-0.029999999329448,0
1594154857092,-0.725830078125,-0.05438232421875,0.0538330078125,0.68359375,1.1875,-6.6875,0.0625,0.029999999329448,-9.77999973297119,-0.620000004768372,0.070000000298023,0,-0.029999999329448
1594154857108,-0.7257080078125,-0.05474853515625,0.05426025390625,0.68365478515625,1.3125,-6.8125,-0.5625,0.029999999329448,-9.77000045776367,-0.649999976158142,0.070000000298023,0.009999999776483,-0.070000000298023
1594154857140,-0.7252197265625,-0.05621337890625,0.05535888671875,0.6839599609375,2.9375,-7.125,-1.625,0,-9.77999973297119,-0.620000004768372,0.029999999329448,0,-0.050000000745058
1594154857158,-0.7247314453125,-0.057373046875,0.05609130859375,0.684326171875,3.125,-8.4375,-2.6875,0.029999999329448,-9.84000015258789,-0.560000002384186,0.059999998658896,-0.03999999910593,0
1594154857185,-0.72418212890625,-0.05938720703125,0.057373046875,0.68463134765625,2.6875,-9.3125,-2.125,0.009999999776483,-9.84000015258789,-0.540000021457672,0.029999999329448,-0.050000000745058,0
1594154857208,-0.72381591796875,-0.060791015625,0.058349609375,0.684814453125,1.8125,-10.25,-2.25,0,-9.80000019073486,-0.569999992847443,0,-0.009999999776483,-0.029999999329448
1594154857242,-0.72344970703125,-0.0628662109375,0.05999755859375,0.68487548828125,0.9375,-10,-1.25,-0.059999998658896,-9.84000015258789,-0.629999995231628,-0.059999998658896,-0.050000000745058,-0.090000003576279
1594154857257,-0.72332763671875,-0.0640869140625,0.06097412109375,0.684814453125,-0.1875,-8.75,-1.5,-0.100000001490116,-9.71000003814697,-0.670000016689301,-0.090000003576279,0.070000000298023,-0.129999995231628
1594154857285,-0.7227783203125,-0.06597900390625,0.0621337890625,0.68511962890625,3.75,-8.5,-2.5,-0.100000001490116,-9.84000015258789,-0.600000023841858,-0.109999999403954,-0.050000000745058,-0.070000000298023
1594154857318,-0.7222900390625,-0.06707763671875,0.0628662109375,0.68548583984375,2.0625,-7,-1.75,0,-9.85999965667725,-0.5,-0.019999999552965,-0.070000000298023,0
1594154857335,-0.7218017578125,-0.06854248046875,0.06390380859375,0.68572998046875,1.75,-6.75,-0.9375,0.019999999552965,-9.85000038146973,-0.509999990463257,0.009999999776483,-0.059999998658896,-0.009999999776483
1594154857362,-0.72161865234375,-0.0693359375,0.064697265625,0.685791015625,1.125,-6.75,-0.375,0.009999999776483,-9.85000038146973,-0.550000011920929,0.059999998658896,0,-0.129999995231628
1594154857407,-0.720947265625,-0.071533203125,0.066650390625,0.68603515625,2.125,-7.625,-1.5625,0.150000005960464,-9.73999977111816,-0.490000009536743,0.129999995231628,0.050000000745058,0
1594154857458,-0.71966552734375,-0.074951171875,0.0693359375,0.686767578125,2.5625,-10.625,-1.6875,0.109999999403954,-9.92000007629395,-0.319999992847443,0.070000000298023,-0.119999997317791,0.129999995231628
1594154857485,-0.7193603515625,-0.07720947265625,0.07110595703125,0.6866455078125,0.0625,-11.375,-1.625,0.009999999776483,-9.77999973297119,-0.519999980926514,-0.009999999776483,0,-0.059999998658896
1594154857508,-0.71923828125,-0.07867431640625,0.0723876953125,0.6865234375,0.1875,-11.6875,-0.9375,-0.029999999329448,-9.80000019073486,-0.540000021457672,-0.070000000298023,0,-0.070000000298023
1594154857534,-0.71893310546875,-0.0806884765625,0.07415771484375,0.68634033203125,0.8125,-10.3125,-0.8125,0.079999998211861,-9.69999980926514,-0.600000023841858,0.03999999910593,0.090000003576279,-0.140000000596046
1594154857558,-0.71844482421875,-0.08197021484375,0.075439453125,0.68658447265625,3.625,-10.8125,-0.9375,0.019999999552965,-9.86999988555908,-0.430000007152557,-0.009999999776483,-0.079999998211861,0.009999999776483
1594154857607,-0.71771240234375,-0.0855712890625,0.07861328125,0.68658447265625,0.125,-11.75,-1.25,0.029999999329448,-9.73999977111816,-0.449999988079071,-0.009999999776483,0.050000000745058,-0.009999999776483
1594154857636,-0.7171630859375,-0.088134765625,0.08056640625,0.68658447265625,2.4375,-13,-2.125,0.009999999776483,-9.73999977111816,-0.479999989271164,-0.029999999329448,0.050000000745058,-0.050000000745058
1594154857661,-0.71649169921875,-0.08978271484375,0.08197021484375,0.6868896484375,4.25,-12.375,-1.8125,-0.059999998658896,-9.86999988555908,-0.400000005960465,-0.109999999403954,-0.079999998211861,0.009999999776483
1594154857686,-0.71600341796875,-0.091796875,0.08367919921875,0.68695068359375,0.625,-9.9375,-1.3125,0.029999999329448,-9.78999996185303,-0.400000005960465,-0.019999999552965,0,0
1594154857708,-0.71575927734375,-0.09307861328125,0.08465576171875,0.68695068359375,1.8125,-9.0625,-1.6875,0,-9.77000045776367,-0.5,-0.059999998658896,0.019999999552965,-0.090000003576279
1594154857735,-0.71502685546875,-0.09478759765625,0.0860595703125,0.687255859375,2.875,-8.3125,-1,-0.009999999776483,-9.82999992370606,-0.509999990463257,-0.079999998211861,-0.029999999329448,-0.109999999403954
1594154857758,-0.714599609375,-0.09576416015625,0.0870361328125,0.6875,2.8125,-8.3125,-0.0625,0.029999999329448,-9.82999992370606,-0.46000000834465,-0.029999999329448,-0.029999999329448,-0.070000000298023
1594154857814,-0.71368408203125,-0.0982666015625,0.08978271484375,0.68768310546875,1.375,-8.8125,0.5625,0.090000003576279,-9.80000019073486,-0.409999996423721,0.050000000745058,0.019999999552965,-0.009999999776483
1594154857840,-0.7130126953125,-0.09979248046875,0.0916748046875,0.68792724609375,2.9375,-9.6875,0.4375,0.100000001490116,-9.89000034332275,-0.28999999165535,0.029999999329448,-0.090000003576279,0.059999998658896
1594154857859,-0.71270751953125,-0.100830078125,0.0928955078125,0.68792724609375,0.8125,-9.5625,0.5,0.050000000745058,-9.90999984741211,-0.200000002980232,0,-0.109999999403954,0.140000000596046
1594154857885,-0.71246337890625,-0.1024169921875,0.09454345703125,0.687744140625,1.0625,-9,-0.4375,0.150000005960464,-9.75,-0.330000013113022,0.090000003576279,0.03999999910593,0.019999999552965
1594154857908,-0.71197509765625,-0.1036376953125,0.09564208984375,0.68792724609375,3,-10.125,-0.9375,0.079999998211861,-9.8100004196167,-0.270000010728836,0.009999999776483,-0.009999999776483,0.070000000298023
1594154857944,-0.71142578125,-0.10565185546875,0.09747314453125,0.68792724609375,0.0625,-11,-0.875,-0.059999998658896,-9.88000011444092,-0.280000001192093,-0.119999997317791,-0.079999998211861,0.050000000745058
1594154857957,-0.71142578125,-0.10693359375,0.09869384765625,0.68756103515625,-2.125,-10,-0.4375,-0.029999999329448,-9.86999988555908,-0.349999994039535,-0.090000003576279,-0.070000000298023,-0.009999999776483
1594154857987,-0.7115478515625,-0.10870361328125,0.100341796875,0.68682861328125,-2.1875,-9.5625,0.5625,0.03999999910593,-9.72000026702881,-0.529999971389771,-0.009999999776483,0.059999998658896,-0.170000001788139
1594154858008,-0.7115478515625,-0.10968017578125,0.10150146484375,0.68658447265625,0.1875,-9,1.125,0.050000000745058,-9.6899995803833,-0.600000023841858,0,0.100000001490116,-0.239999994635582
1594154858037,-0.7109375,-0.1109619140625,0.10333251953125,0.68670654296875,2.125,-8.4375,0.8125,0.03999999910593,-9.89999961853027,-0.409999996423721,0,-0.100000001490116,-0.059999998658896
1594154858062,-0.71063232421875,-0.11175537109375,0.10430908203125,0.686767578125,1.5,-7.1875,0.5,0.029999999329448,-9.86999988555908,-0.360000014305115,-0.009999999776483,-0.070000000298023,-0.019999999552965
1594154858086,-0.71026611328125,-0.11297607421875,0.10565185546875,0.68670654296875,0.5625,-7.5625,-0.125,0.079999998211861,-9.78999996185303,-0.270000010728836,0.029999999329448,0,0.059999998658896
1594154858108,-0.7100830078125,-0.11407470703125,0.10675048828125,0.6865234375,-0.125,-9.375,-0.4375,0.009999999776483,-9.84000015258789,-0.330000013113022,-0.029999999329448,-0.03999999910593,0
1594154858142,-0.7095947265625,-0.11614990234375,0.1085205078125,0.6864013671875,1.625,-11.4375,-1.5625,0,-9.80000019073486,-0.28999999165535,-0.03999999910593,0,0.029999999329448
1594154858163,-0.709228515625,-0.11761474609375,0.10968017578125,0.6864013671875,0.6875,-10.9375,-1.4375,0.019999999552965,-9.90999984741211,-0.200000002980232,-0.029999999329448,-0.109999999403954,0.119999997317791
1594154858194,-0.7091064453125,-0.1197509765625,0.1112060546875,0.6859130859375,-1.125,-9.8125,-1.9375,0,-9.81999969482422,-0.340000003576279,-0.059999998658896,-0.019999999552965,0
1594154858208,-0.70892333984375,-0.1209716796875,0.11199951171875,0.685791015625,0.25,-8.125,-1.625,-0.03999999910593,-9.84000015258789,-0.310000002384186,-0.109999999403954,-0.029999999329448,0.019999999552965
1594154858236,-0.708740234375,-0.1220703125,0.11273193359375,0.68560791015625,-0.75,-7.625,-1.0625,0.029999999329448,-9.80000019073486,-0.419999986886978,-0.029999999329448,0,-0.079999998211861
1594154858260,-0.7086181640625,-0.1234130859375,0.11395263671875,0.685302734375,-1.125,-6.75,-0.1875,0.03999999910593,-9.84000015258789,-0.379999995231628,-0.029999999329448,-0.03999999910593,-0.03999999910593
1594154858286,-0.70880126953125,-0.124755859375,0.11517333984375,0.68463134765625,-2.5625,-7.5,-0.625,0.129999995231628,-9.72999954223633,-0.519999980926514,0.059999998658896,0.059999998658896,-0.170000001788139
1594154858308,-0.708740234375,-0.125732421875,0.1160888671875,0.68438720703125,-0.5,-8.1875,-0.3125,0.079999998211861,-9.77000045776367,-0.529999971389771,0,0.019999999552965,-0.170000001788139
1594154858336,-0.7086181640625,-0.12677001953125,0.11712646484375,0.6842041015625,0.25,-8.875,-1,0.070000000298023,-9.76000022888184,-0.490000009536743,0,0.029999999329448,-0.129999995231628
1594154858392,-0.7078857421875,-0.129638671875,0.11920166015625,0.68402099609375,0.875,-7.75,-2.4375,-0.029999999329448,-9.77000045776367,-0.46000000834465,-0.119999997317791,0.019999999552965,-0.109999999403954
1594154858408,-0.70733642578125,-0.13116455078125,0.1199951171875,0.68414306640625,1.3125,-6,-2,0.009999999776483,-9.85000038146973,-0.370000004768372,-0.070000000298023,-0.050000000745058,-0.029999999329448
1594154858436,-0.7071533203125,-0.1318359375,0.12060546875,0.68408203125,-0.0625,-5.375,-0.5625,0.140000000596046,-9.86999988555908,-0.340000003576279,0.050000000745058,-0.070000000298023,0
1594154858458,-0.707275390625,-0.13275146484375,0.12164306640625,0.68359375,-1.875,-5.875,0.625,0.189999997615814,-9.81999969482422,-0.46000000834465,0.100000001490116,-0.019999999552965,-0.109999999403954
1594154858487,-0.70733642578125,-0.13360595703125,0.1224365234375,0.68328857421875,0.5,-7.125,-0.4375,0.070000000298023,-9.77000045776367,-0.529999971389771,-0.009999999776483,0.019999999552965,-0.170000001788139
1594154858508,-0.70684814453125,-0.135009765625,0.1236572265625,0.6832275390625,1.8125,-7.6875,-1.375,0.009999999776483,-9.78999996185303,-0.5,-0.070000000298023,0,-0.150000005960464
1594154858537,-0.70648193359375,-0.135986328125,0.12445068359375,0.683349609375,1.625,-7.625,-1.1875,0.009999999776483,-9.8100004196167,-0.479999989271164,-0.079999998211861,-0.009999999776483,-0.140000000596046
1594154858572,-0.70574951171875,-0.13787841796875,0.1260986328125,0.683349609375,0.9375,-7.25,-0.5,0.029999999329448,-9.80000019073486,-0.400000005960465,-0.059999998658896,0,-0.070000000298023
1594154858596,-0.7056884765625,-0.13824462890625,0.12652587890625,0.68328857421875,-0.25,-6.375,0.4375,0.109999999403954,-9.80000019073486,-0.409999996423721,0,0,-0.070000000298023
1594154858613,-0.70556640625,-0.13922119140625,0.127685546875,0.68304443359375,-0.5,-5.5625,0.875,0.100000001490116,-9.75,-0.409999996423721,0,0.03999999910593,-0.070000000298023
1594154858636,-0.7054443359375,-0.139892578125,0.12835693359375,0.682861328125,0.25,-5.9375,0.25,0.159999996423721,-9.73999977111816,-0.400000005960465,0.070000000298023,0.050000000745058,-0.059999998658896
1594154858658,-0.70501708984375,-0.14093017578125,0.12957763671875,0.682861328125,1.4375,-6.5625,0.0625,0.119999997317791,-9.77000045776367,-0.370000004768372,0.019999999552965,0.019999999552965,-0.03999999910593
1594154858687,-0.70465087890625,-0.1417236328125,0.13043212890625,0.682861328125,1.4375,-7.3125,-0.25,0.100000001490116,-9.85000038146973,-0.330000013113022,0.050000000745058,-0.009999999776483,-0.029999999329448
1594154858709,-0.70440673828125,-0.14306640625,0.1318359375,0.6826171875,-0.0625,-8.1875,-0.375,0.100000001490116,-9.73999977111816,-0.400000005960465,0,0.050000000745058,-0.070000000298023
1594154858732,-0.70416259765625,-0.14410400390625,0.13275146484375,0.6824951171875,1.1875,-8.5625,-0.8125,0.119999997317791,-9.77000045776367,-0.439999997615814,0.019999999552965,0.019999999552965,-0.109999999403954
1594154858759,-0.70343017578125,-0.1456298828125,0.1341552734375,0.6826171875,2.8125,-8,-1.0625,0.140000000596046,-9.85999965667725,-0.310000002384186,0.03999999910593,-0.059999998658896,0
1594154858796,-0.70281982421875,-0.1466064453125,0.13507080078125,0.682861328125,2.375,-8.4375,-1,0.109999999403954,-9.9399995803833,-0.280000001192093,0,-0.140000000596046,0.009999999776483
1594154858809,-0.70233154296875,-0.14825439453125,0.13641357421875,0.6827392578125,-0.1875,-8.25,-1.375,0.150000005960464,-9.76000022888184,-0.419999986886978,0.03999999910593,0.029999999329448,-0.119999997317791
1594154858841,-0.70159912109375,-0.14996337890625,0.13775634765625,0.682861328125,3.0625,-9.1875,-1.5625,0.109999999403954,-9.88000011444092,-0.310000002384186,0,-0.079999998211861,-0.019999999552965
1594154858859,-0.70098876953125,-0.1512451171875,0.1387939453125,0.6829833984375,2.8125,-9.9375,-1.6875,0.090000003576279,-9.85999965667725,-0.270000010728836,-0.019999999552965,-0.059999998658896,0
1594154858888,-0.70050048828125,-0.152587890625,0.13995361328125,0.6829833984375,1.625,-10.5,-1.1875,0.070000000298023,-9.89999961853027,-0.170000001788139,-0.050000000745058,-0.100000001490116,0.090000003576279
1594154858910,-0.70025634765625,-0.154541015625,0.1414794921875,0.68243408203125,-1.75,-9.625,-1.125,0.079999998211861,-9.78999996185303,-0.25,-0.03999999910593,0,0.019999999552965
1594154858934,-0.70013427734375,-0.15570068359375,0.14239501953125,0.68206787109375,-0.9375,-8.625,-1.25,0.059999998658896,-9.80000019073486,-0.25,-0.059999998658896,0,0.029999999329448
1594154858961,-0.70013427734375,-0.1572265625,0.1434326171875,0.6815185546875,-1.8125,-6.75,-1,0.050000000745058,-9.75,-0.360000014305115,-0.070000000298023,0.03999999910593,-0.070000000298023
1594154858988,-0.7000732421875,-0.158203125,0.14410400390625,0.68121337890625,-1.375,-7.0625,-1.25,0.050000000745058,-9.73999977111816,-0.509999990463257,-0.029999999329448,0.070000000298023,-0.239999994635582
1594154859010,-0.70013427734375,-0.1597900390625,0.14501953125,0.68060302734375,-0.8125,-7.3125,-1.4375,0.109999999403954,-9.67000007629395,-0.610000014305115,-0.019999999552965,0.119999997317791,-0.300000011920929
1594154859033,-0.699951171875,-0.160888671875,0.14581298828125,0.68035888671875,1.6875,-8.1875,-1.1875,0.189999997615814,-9.69999980926514,-0.540000021457672,0.03999999910593,0.090000003576279,-0.230000004172325
1594154859060,-0.6990966796875,-0.16229248046875,0.14739990234375,0.68060302734375,4.5,-8.8125,-0.375,0.070000000298023,-9.97000026702881,-0.349999994039535,-0.070000000298023,-0.170000001788139,-0.059999998658896
1594154859089,-0.69854736328125,-0.1632080078125,0.14849853515625,0.68072509765625,2,-8.4375,-0.0625,0.170000001788139,-9.80000019073486,-0.379999995231628,0.029999999329448,0,-0.100000001490116
1594154859110,-0.6981201171875,-0.1646728515625,0.1497802734375,0.6805419921875,1.875,-7.375,-1.3125,0.180000007152557,-9.81999969482422,-0.310000002384186,0.029999999329448,-0.009999999776483,-0.029999999329448
1594154859137,-0.69744873046875,-0.1656494140625,0.1505126953125,0.6807861328125,3.8125,-8,-2,0.109999999403954,-9.89000034332275,-0.25,-0.03999999910593,-0.090000003576279,0.009999999776483
1594154859160,-0.696533203125,-0.167236328125,0.15185546875,0.6810302734375,2.0625,-7.875,-1,0.100000001490116,-9.96000003814697,-0.159999996423721,-0.050000000745058,-0.159999996423721,0.090000003576279
1594154859184,-0.69622802734375,-0.16815185546875,0.15264892578125,0.680908203125,0.0625,-7.5625,-0.625,0.109999999403954,-9.89000034332275,-0.189999997615814,-0.050000000745058,-0.090000003576279,0.059999998658896
1594154859210,-0.69610595703125,-0.1695556640625,0.1539306640625,0.680419921875,-2.125,-7.75,-0.6875,0.090000003576279,-9.77000045776367,-0.310000002384186,-0.059999998658896,0.019999999552965,-0.050000000745058
1594154859261,-0.69622802734375,-0.17138671875,0.1556396484375,0.679443359375,0.375,-5.125,-0.3125,0.200000002980232,-9.75,-0.349999994039535,0.03999999910593,0.03999999910593,-0.079999998211861
1594154859291,-0.6959228515625,-0.17236328125,0.15643310546875,0.67938232421875,0.0625,-4.9375,-0.75,0.200000002980232,-9.77999973297119,-0.430000007152557,0.03999999910593,0.009999999776483,-0.150000005960464
1594154859333,-0.695556640625,-0.17388916015625,0.15740966796875,0.67913818359375,2.8125,-5.5625,-1.25,0.200000002980232,-9.78999996185303,-0.419999986886978,0.029999999329448,0,-0.150000005960464
1594154859361,-0.69439697265625,-0.1751708984375,0.15850830078125,0.6796875,5.0625,-7.0625,-1.375,0.230000004172325,-10,-0.170000001788139,0.050000000745058,-0.200000002980232,0.079999998211861
1594154859383,-0.69390869140625,-0.176025390625,0.15924072265625,0.67974853515625,0.9375,-7.0625,-1,0.25,-9.88000011444092,-0.219999998807907,0.070000000298023,-0.079999998211861,0.009999999776483
1594154859411,-0.69366455078125,-0.17730712890625,0.16033935546875,0.67950439453125,0.0625,-6.625,-0.625,0.259999990463257,-9.78999996185303,-0.280000001192093,0.079999998211861,0,-0.029999999329448
1594154859434,-0.693359375,-0.17828369140625,0.16107177734375,0.67938232421875,1,-7.4375,-1.4375,0.25,-9.85999965667725,-0.259999990463257,0.059999998658896,-0.059999998658896,-0.019999999552965
1594154859461,-0.69281005859375,-0.17974853515625,0.162109375,0.6793212890625,1.125,-6.625,-1.625,0.270000010728836,-9.85000038146973,-0.180000007152557,0.079999998211861,-0.050000000745058,0.050000000745058
1594154859485,-0.69244384765625,-0.1806640625,0.16265869140625,0.6793212890625,1.1875,-6.3125,-1.9375,0.189999997615814,-9.88000011444092,-0.200000002980232,0,-0.079999998211861,0.029999999329448
1594154859511,-0.692138671875,-0.18145751953125,0.1632080078125,0.67919921875,-0.375,-5.5625,-0.1875,0.180000007152557,-9.80000019073486,-0.28999999165535,-0.009999999776483,0,-0.050000000745058
1594154859536,-0.69207763671875,-0.182373046875,0.16412353515625,0.6788330078125,-1.125,-4.75,0.625,0.119999997317791,-9.80000019073486,-0.319999992847443,-0.070000000298023,0,-0.079999998211861
1594154859562,-0.69195556640625,-0.18316650390625,0.1649169921875,0.6785888671875,1.125,-4.4375,0.125,0.189999997615814,-9.77999973297119,-0.310000002384186,0,0.009999999776483,-0.070000000298023
1594154859583,-0.69171142578125,-0.18359375,0.16552734375,0.67852783203125,0.8125,-4.375,0.8125,0.209999993443489,-9.86999988555908,-0.28999999165535,0.009999999776483,-0.070000000298023,-0.050000000745058
1594154859612,-0.691650390625,-0.18414306640625,0.1663818359375,0.67822265625,-0.8125,-3.75,0.6875,0.310000002384186,-9.81999969482422,-0.300000011920929,0.109999999403954,-0.009999999776483,-0.050000000745058
1594154859641,-0.6915283203125,-0.1846923828125,0.1668701171875,0.6781005859375,1.5625,-4.9375,-0.25,0.230000004172325,-9.73999977111816,-0.379999995231628,0.03999999910593,0.050000000745058,-0.140000000596046
1594154859662,-0.69122314453125,-0.18524169921875,0.16754150390625,0.6781005859375,1.75,-5.9375,-0.625,0.270000010728836,-9.72999954223633,-0.379999995231628,0.070000000298023,0.059999998658896,-0.140000000596046
1594154859683,-0.6905517578125,-0.18634033203125,0.16864013671875,0.67822265625,3.75,-6.625,-0.1875,0.280000001192093,-9.73999977111816,-0.300000011920929,0.079999998211861,0.050000000745058,-0.070000000298023
1594154859712,-0.68988037109375,-0.1871337890625,0.169677734375,0.67840576171875,1.6875,-8.3125,-0.8125,0.200000002980232,-9.89000034332275,-0.109999999403954,0,-0.090000003576279,0.090000003576279
1594154859733,-0.68939208984375,-0.18865966796875,0.17120361328125,0.67816162109375,-0.4375,-8.8125,0.3125,0.119999997317791,-9.85999965667725,-0.200000002980232,-0.059999998658896,-0.059999998658896,0
1594154859762,-0.68927001953125,-0.189697265625,0.172119140625,0.67767333984375,-0.625,-8.5625,0.25,0.159999996423721,-9.72999954223633,-0.409999996423721,-0.029999999329448,0.059999998658896,-0.189999997615814
1594154859784,-0.68896484375,-0.19122314453125,0.17364501953125,0.67718505859375,0.6875,-8.875,0.0625,0.150000005960464,-9.81999969482422,-0.340000003576279,-0.029999999329448,-0.009999999776483,-0.119999997317791
1594154859813,-0.6883544921875,-0.19281005859375,0.17498779296875,0.677001953125,1.5,-8,-1.5,0.109999999403954,-9.84000015258789,-0.25,-0.079999998211861,-0.03999999910593,-0.029999999329448
1594154859834,-0.68792724609375,-0.19378662109375,0.17572021484375,0.677001953125,1.6875,-7.125,-1.75,0.129999995231628,-9.82999992370606,-0.200000002980232,-0.059999998658896,-0.029999999329448,0
1594154859862,-0.68743896484375,-0.19464111328125,0.17645263671875,0.677001953125,1.6875,-6.625,-1.125,0.070000000298023,-9.85999965667725,-0.219999998807907,-0.119999997317791,-0.059999998658896,-0.019999999552965
1594154859913,-0.6868896484375,-0.1966552734375,0.178466796875,0.676513671875,-0.875,-5.25,0.1875,0.159999996423721,-9.86999988555908,-0.219999998807907,-0.029999999329448,-0.070000000298023,-0.019999999552965
1594154859936,-0.68682861328125,-0.19732666015625,0.1790771484375,0.67620849609375,-1.375,-5.5625,-0.1875,0.230000004172325,-9.84000015258789,-0.209999993443489,0.019999999552965,-0.03999999910593,0
1594154859962,-0.68682861328125,-0.19818115234375,0.17962646484375,0.67578125,-1.5,-6.1875,-0.8125,0.270000010728836,-9.68000030517578,-0.419999986886978,0.070000000298023,0.109999999403954,-0.200000002980232
1594154859986,-0.686279296875,-0.19964599609375,0.1806640625,0.6756591796875,3.0625,-8.1875,-1.4375,0.239999994635582,-9.6899995803833,-0.360000014305115,0.029999999329448,0.100000001490116,-0.140000000596046
1594154860012,-0.6856689453125,-0.20068359375,0.181640625,0.67572021484375,2.75,-8.6875,-0.75,0.100000001490116,-9.88000011444092,-0.209999993443489,-0.109999999403954,-0.079999998211861,-0.009999999776483
1594154860036,-0.68536376953125,-0.20208740234375,0.18292236328125,0.67523193359375,-1.625,-7.5625,-0.375,0.330000013113022,-9.77999973297119,-0.300000011920929,0.109999999403954,0.009999999776483,-0.090000003576279
1594154860061,-0.68524169921875,-0.203125,0.183837890625,0.67486572265625,-0.4375,-8.5625,-0.625,0.25,-9.71000003814697,-0.419999986886978,0.029999999329448,0.090000003576279,-0.200000002980232
1594154860085,-0.68463134765625,-0.20458984375,0.18511962890625,0.67462158203125,3.0625,-7.4375,-0.75,0.219999998807907,-9.69999980926514,-0.419999986886978,0,0.090000003576279,-0.209999993443489
1594154860115,-0.68389892578125,-0.20526123046875,0.18609619140625,0.6749267578125,5.0625,-7.125,1.125,0.209999993443489,-9.96000003814697,-0.050000000745058,0,-0.159999996423721,0.129999995231628
1594154860139,-0.68292236328125,-0.20611572265625,0.18780517578125,0.6751708984375,2.75,-7.9375,1.0625,0.159999996423721,-9.93000030517578,-0.090000003576279,-0.03999999910593,-0.129999995231628,0.070000000298023
1594154860163,-0.68255615234375,-0.2069091796875,0.18896484375,0.67498779296875,0.9375,-8.4375,1.1875,0.189999997615814,-9.77999973297119,-0.189999997615814,-0.009999999776483,0.009999999776483,-0.019999999552965
1594154860186,-0.68194580078125,-0.20819091796875,0.19091796875,0.6746826171875,1.625,-9.9375,1.6875,0.180000007152557,-9.82999992370606,-0.119999997317791,-0.009999999776483,-0.029999999329448,0.03999999910593
1594154860208,-0.68157958984375,-0.20916748046875,0.1923828125,0.67431640625,0.1875,-10.375,1.9375,0.170000001788139,-9.85000038146973,-0.100000001490116,-0.019999999552965,-0.050000000745058,0.050000000745058
1594154860236,-0.6812744140625,-0.210205078125,0.1937255859375,0.67388916015625,0.0625,-10.25,0.875,0.090000003576279,-9.78999996185303,-0.219999998807907,-0.090000003576279,0.009999999776483,-0.059999998658896
1594154860259,-0.6805419921875,-0.21173095703125,0.19549560546875,0.67364501953125,2.3125,-9.0625,-0.5625,0,-9.77999973297119,-0.219999998807907,-0.180000007152557,0.019999999552965,-0.070000000298023
1594154860283,-0.679931640625,-0.212646484375,0.1964111328125,0.6737060546875,2.8125,-7.5,-0.5,-0.009999999776483,-9.8100004196167,-0.140000000596046,-0.200000002980232,-0.009999999776483,0
1594154860333,-0.67950439453125,-0.213134765625,0.1983642578125,0.67340087890625,-0.3125,-3.5625,2.75,0.109999999403954,-9.86999988555908,-0.170000001788139,-0.050000000745058,-0.059999998658896,-0.029999999329448
1594154860359,-0.67938232421875,-0.2137451171875,0.19927978515625,0.67303466796875,-1.0625,-4.625,0.1875,-0.019999999552965,-9.76000022888184,-0.310000002384186,-0.180000007152557,0.029999999329448,-0.159999996423721
1594154860384,-0.67913818359375,-0.21429443359375,0.19976806640625,0.67303466796875,1.625,-4.1875,-0.9375,0.200000002980232,-9.6899995803833,-0.28999999165535,0.029999999329448,0.100000001490116,-0.150000005960464
1594154860408,-0.6781005859375,-0.2147216796875,0.2008056640625,0.67364501953125,5.25,-4.6875,0.625,0.100000001490116,-10,-0.019999999552965,-0.059999998658896,-0.200000002980232,0.079999998211861
1594154860432,-0.67767333984375,-0.21527099609375,0.20159912109375,0.67364501953125,1,-6.25,1.25,0.050000000745058,-9.84000015258789,-0.159999996423721,-0.109999999403954,-0.03999999910593,-0.050000000745058
1594154860458,-0.6773681640625,-0.216064453125,0.20294189453125,0.67333984375,1.375,-5.0625,1.25,0,-9.69999980926514,-0.189999997615814,-0.150000005960464,0.090000003576279,-0.079999998211861
1594154860482,-0.6767578125,-0.2166748046875,0.20355224609375,0.6734619140625,3.625,-5.75,-0.875,0.079999998211861,-9.72999954223633,-0.219999998807907,-0.070000000298023,0.070000000298023,-0.119999997317791
1594154860507,-0.67578125,-0.21710205078125,0.2044677734375,0.674072265625,4.6875,-2.625,0.3125,0.200000002980232,-9.75,-0.129999995231628,0.03999999910593,0.03999999910593,-0.050000000745058
1594154860536,-0.6746826171875,-0.21734619140625,0.205322265625,0.67486572265625,6.0625,-3.6875,-0.125,0.230000004172325,-9.85999965667725,-0.029999999329448,0.070000000298023,-0.050000000745058,0.009999999776483
1594154860558,-0.67388916015625,-0.21771240234375,0.2060546875,0.67529296875,5.1875,-4.875,-0.5625,0.230000004172325,-9.85999965667725,-0.090000003576279,0.059999998658896,-0.050000000745058,-0.059999998658896
1594154860586,-0.673095703125,-0.21826171875,0.2069091796875,0.6756591796875,4.625,-6.8125,0.0625,0.200000002980232,-9.88000011444092,-0.050000000745058,0.03999999910593,-0.079999998211861,-0.03999999910593
1594154860617,-0.6719970703125,-0.21917724609375,0.208251953125,0.676025390625,3.0625,-5.6875,0.3125,0.150000005960464,-9.89999961853027,0.03999999910593,0,-0.090000003576279,0.029999999329448
1594154860633,-0.6715087890625,-0.2197265625,0.20904541015625,0.6761474609375,2.625,-5.4375,0.0625,0.090000003576279,-9.97999954223633,-0.029999999329448,-0.059999998658896,-0.170000001788139,-0.050000000745058
1594154860659,-0.6707763671875,-0.2205810546875,0.2098388671875,0.67633056640625,2.5,-5.0625,-0.75,0.150000005960464,-9.84000015258789,-0.079999998211861,0,-0.03999999910593,-0.100000001490116
1594154860684,-0.67010498046875,-0.22125244140625,0.21044921875,0.67657470703125,4,-5.6875,-1.25,0.150000005960464,-9.84000015258789,-0.079999998211861,-0.009999999776483,-0.029999999329448,-0.119999997317791
1594154860708,-0.6693115234375,-0.22198486328125,0.21148681640625,0.6767578125,1.6875,-4.5625,0.5,0.239999994635582,-9.8100004196167,-0.059999998658896,0.070000000298023,0,-0.109999999403954
1594154860733,-0.6690673828125,-0.2222900390625,0.2122802734375,0.67669677734375,1.5625,-5.125,1.875,0.200000002980232,-9.77999973297119,0.03999999910593,0.03999999910593,0.009999999776483,0
1594154860769,-0.66851806640625,-0.222900390625,0.21380615234375,0.676513671875,2.3125,-7.3125,1.875,0.180000007152557,-9.81999969482422,-0.050000000745058,0.029999999329448,-0.019999999552965,-0.119999997317791
1594154860783,-0.66802978515625,-0.22357177734375,0.21502685546875,0.6763916015625,2.25,-8.25,1.6875,0.119999997317791,-9.85000038146973,0.050000000745058,-0.019999999552965,-0.03999999910593,-0.009999999776483
1594154860834,-0.6669921875,-0.2254638671875,0.21759033203125,0.67596435546875,1.125,-7.625,-0.3125,0.150000005960464,-9.77000045776367,0.019999999552965,0.009999999776483,0.029999999329448,-0.059999998658896
1594154860859,-0.666015625,-0.22674560546875,0.2188720703125,0.67608642578125,3.8125,-7.375,-1.375,0.079999998211861,-9.76000022888184,-0.050000000745058,-0.059999998658896,0.03999999910593,-0.150000005960464
1594154860883,-0.665283203125,-0.22760009765625,0.2197265625,0.67626953125,3.75,-7.5,-1.0625,0.059999998658896,-9.81999969482422,0,-0.079999998211861,-0.009999999776483,-0.100000001490116
1594154860908,-0.66436767578125,-0.228759765625,0.2208251953125,0.67645263671875,2.4375,-6.25,-1.25,0.109999999403954,-9.81999969482422,0.059999998658896,-0.03999999910593,-0.009999999776483,-0.059999998658896
1594154860934,-0.66375732421875,-0.22955322265625,0.22149658203125,0.676513671875,2.4375,-6.375,-1.25,0.129999995231628,-9.76000022888184,0.009999999776483,-0.019999999552965,0.029999999329448,-0.109999999403954
1594154860958,-0.66290283203125,-0.230712890625,0.22265625,0.67657470703125,3.3125,-7.25,-0.75,0.119999997317791,-9.72999954223633,-0.03999999910593,-0.029999999329448,0.059999998658896,-0.180000007152557
1594154860984,-0.66204833984375,-0.23138427734375,0.2236328125,0.6768798828125,5.25,-7.25,-0.4375,0.159999996423721,-9.96000003814697,0.209999993443489,0,-0.159999996423721,0.050000000745058
1594154861008,-0.6611328125,-0.2325439453125,0.224853515625,0.67694091796875,1.5,-7.5,-1,0.189999997615814,-9.8100004196167,0.100000001490116,0.009999999776483,0,-0.059999998658896
1594154861035,-0.66064453125,-0.2335205078125,0.22564697265625,0.67681884765625,1.625,-7.9375,-1.25,0.159999996423721,-9.77000045776367,0.019999999552965,-0.009999999776483,0.029999999329448,-0.150000005960464
1594154861058,-0.659423828125,-0.2349853515625,0.2269287109375,0.67706298828125,4.0625,-7.9375,-1.375,0.219999998807907,-9.86999988555908,0.070000000298023,0.029999999329448,-0.070000000298023,-0.119999997317791
1594154861086,-0.65875244140625,-0.2357177734375,0.22784423828125,0.6771240234375,2.6875,-6.875,-0.4375,0.280000001192093,-9.85000038146973,0.140000000596046,0.090000003576279,-0.050000000745058,-0.059999998658896
1594154861108,-0.65789794921875,-0.23687744140625,0.229248046875,0.67718505859375,3.5625,-7.8125,0.25,0.230000004172325,-9.77999973297119,0.109999999403954,0.050000000745058,0.009999999776483,-0.100000001490116
1594154861140,-0.65679931640625,-0.238037109375,0.2308349609375,0.67724609375,2.6875,-8.625,0.625,0.150000005960464,-9.84000015258789,0.140000000596046,-0.019999999552965,-0.03999999910593,-0.090000003576279
1594154861158,-0.6561279296875,-0.23895263671875,0.2320556640625,0.67718505859375,2.8125,-9.3125,0.25,0.230000004172325,-9.81999969482422,0.259999990463257,0.03999999910593,-0.009999999776483,0.019999999552965
1594154861209,-0.6541748046875,-0.24176025390625,0.23492431640625,0.67706298828125,2.0625,-11.1875,-0.625,0.209999993443489,-9.84000015258789,0.28999999165535,0.009999999776483,-0.03999999910593,0.029999999329448
1594154861232,-0.65362548828125,-0.24298095703125,0.2362060546875,0.67669677734375,0.75,-11.25,-0.3125,0.189999997615814,-9.72000026702881,0.180000007152557,0,0.079999998211861,-0.079999998211861
1594154861258,-0.65264892578125,-0.24493408203125,0.23828125,0.67626953125,2.25,-11.875,-0.3125,0.119999997317791,-9.77000045776367,0.200000002980232,-0.070000000298023,0.019999999552965,-0.070000000298023
1594154861286,-0.65191650390625,-0.24615478515625,0.2396240234375,0.67596435546875,1.5625,-11.25,0.125,0,-9.73999977111816,0.239999994635582,-0.180000007152557,0.050000000745058,-0.03999999910593
1594154861308,-0.65093994140625,-0.24774169921875,0.241455078125,0.67572021484375,2.9375,-9.6875,-0.1875,0.019999999552965,-9.82999992370606,0.25,-0.170000001788139,-0.029999999329448,-0.029999999329448
1594154861337,-0.65020751953125,-0.2486572265625,0.2425537109375,0.6756591796875,2.6875,-8.9375,0,0.029999999329448,-9.85000038146973,0.270000010728836,-0.159999996423721,-0.050000000745058,-0.019999999552965
1594154861359,-0.64947509765625,-0.25,0.24395751953125,0.6754150390625,1.5625,-8.0625,-0.6875,0.119999997317791,-9.72999954223633,0.129999995231628,-0.070000000298023,0.059999998658896,-0.170000001788139
1594154861383,-0.648681640625,-0.25091552734375,0.24493408203125,0.67547607421875,4,-8.5625,-1.0625,0.170000001788139,-9.84000015258789,0.219999998807907,-0.029999999329448,-0.050000000745058,-0.090000003576279
1594154861418,-0.64739990234375,-0.25244140625,0.2462158203125,0.67572021484375,3.4375,-7.75,-2.4375,0.200000002980232,-9.82999992370606,0.239999994635582,-0.019999999552965,-0.029999999329448,-0.090000003576279
1594154861433,-0.6466064453125,-0.25341796875,0.24688720703125,0.67584228515625,3.25,-7.25,-2,0.170000001788139,-9.8100004196167,0.239999994635582,-0.050000000745058,-0.009999999776483,-0.100000001490116
1594154861459,-0.6455078125,-0.25457763671875,0.24810791015625,0.676025390625,2.75,-7.0625,-0.6875,0.189999997615814,-9.89000034332275,0.330000013113022,-0.03999999910593,-0.100000001490116,-0.019999999552965
1594154861488,-0.64501953125,-0.25531005859375,0.2489013671875,0.6759033203125,1.375,-6.75,0.0625,0.239999994635582,-9.89000034332275,0.319999992847443,0,-0.100000001490116,-0.03999999910593
1594154861510,-0.6444091796875,-0.25640869140625,0.25018310546875,0.675537109375,0.875,-7.3125,0.75,0.310000002384186,-9.85000038146973,0.310000002384186,0.070000000298023,-0.050000000745058,-0.050000000745058
1594154861533,-0.64404296875,-0.2572021484375,0.25115966796875,0.67523193359375,0.6875,-8.0625,1,0.330000013113022,-9.84000015258789,0.319999992847443,0.090000003576279,-0.03999999910593,-0.03999999910593
1594154861559,-0.6434326171875,-0.2584228515625,0.2528076171875,0.67474365234375,0.9375,-8.625,1.0625,0.280000001192093,-9.86999988555908,0.400000005960465,0.050000000745058,-0.070000000298023,0.019999999552965
1594154861584,-0.64306640625,-0.25933837890625,0.25390625,0.67431640625,-0.5625,-9.125,1.25,0.379999995231628,-9.84000015258789,0.360000014305115,0.159999996423721,-0.03999999910593,0
1594154861610,-0.6424560546875,-0.2608642578125,0.25567626953125,0.67364501953125,0.875,-10.375,0.4375,0.310000002384186,-9.78999996185303,0.25,0.079999998211861,0,-0.119999997317791
1594154861634,-0.64178466796875,-0.261962890625,0.25689697265625,0.67340087890625,1.8125,-10.625,0.375,0.239999994635582,-9.84000015258789,0.370000004768372,0.009999999776483,-0.03999999910593,0
1594154861660,-0.64093017578125,-0.263671875,0.2586669921875,0.6728515625,1,-10.3125,-0.375,0.300000011920929,-9.77000045776367,0.180000007152557,0.070000000298023,0.019999999552965,-0.189999997615814
1594154861683,-0.6402587890625,-0.2647705078125,0.2598876953125,0.672607421875,2.4375,-10.3125,-0.375,0.200000002980232,-9.77000045776367,0.239999994635582,-0.019999999552965,0.009999999776483,-0.140000000596046
1594154861710,-0.63922119140625,-0.2664794921875,0.26171875,0.6722412109375,1.6875,-10.8125,0.25,0.25,-9.72999954223633,0.310000002384186,0.019999999552965,0.050000000745058,-0.079999998211861
1594154861733,-0.6385498046875,-0.26751708984375,0.2630615234375,0.67193603515625,2.125,-10.3125,1.0625,0.170000001788139,-9.75,0.340000003576279,-0.050000000745058,0.03999999910593,-0.059999998658896
1594154861760,-0.6375732421875,-0.26873779296875,0.26495361328125,0.671630859375,2.8125,-9.0625,1.25,0.119999997317791,-9.8100004196167,0.340000003576279,-0.100000001490116,-0.019999999552965,-0.070000000298023
1594154861788,-0.6370849609375,-0.2694091796875,0.26611328125,0.67138671875,1.3125,-7.5,1.8125,0.140000000596046,-9.84000015258789,0.419999986886978,-0.070000000298023,-0.03999999910593,0
1594154861811,-0.636474609375,-0.2701416015625,0.2677001953125,0.6710205078125,2.6875,-7,2,0.180000007152557,-9.80000019073486,0.319999992847443,-0.019999999552965,-0.009999999776483,-0.100000001490116
1594154861834,-0.63580322265625,-0.27069091796875,0.268798828125,0.6710205078125,3.75,-7.3125,1,0.209999993443489,-9.89000034332275,0.360000014305115,0,-0.090000003576279,-0.070000000298023
1594154861860,-0.634765625,-0.27166748046875,0.2703857421875,0.67095947265625,2.625,-8.125,0.625,0.209999993443489,-9.85000038146973,0.379999995231628,0,-0.059999998658896,-0.070000000298023
1594154861883,-0.6341552734375,-0.2724609375,0.271484375,0.67071533203125,2,-8.5,0.625,0.170000001788139,-9.85999965667725,0.439999997615814,-0.029999999329448,-0.070000000298023,-0.009999999776483
1594154861910,-0.63330078125,-0.27374267578125,0.27288818359375,0.67047119140625,1.25,-7.9375,0.375,0.159999996423721,-9.89000034332275,0.46000000834465,-0.03999999910593,-0.100000001490116,0
1594154861933,-0.63287353515625,-0.27447509765625,0.27386474609375,0.670166015625,0.9375,-7.4375,0.6875,0.219999998807907,-9.82999992370606,0.469999998807907,0.009999999776483,-0.029999999329448,0
1594154861961,-0.63226318359375,-0.2755126953125,0.275146484375,0.6697998046875,1,-7,0.0625,0.280000001192093,-9.77999973297119,0.389999985694885,0.070000000298023,0.009999999776483,-0.079999998211861
1594154861987,-0.6317138671875,-0.27630615234375,0.2760009765625,0.66961669921875,1.6875,-7.4375,-0.0625,0.170000001788139,-9.80000019073486,0.409999996423721,-0.029999999329448,0,-0.059999998658896
1594154862012,-0.630859375,-0.27752685546875,0.2772216796875,0.66943359375,1.5625,-7.75,-1,0.239999994635582,-9.81999969482422,0.389999985694885,0.029999999329448,-0.019999999552965,-0.090000003576279
1594154862035,-0.6302490234375,-0.278564453125,0.27801513671875,0.66925048828125,1.4375,-8.5,-1.6875,0.219999998807907,-9.67000007629395,0.330000013113022,0,0.109999999403954,-0.150000005960464
1594154862061,-0.62890625,-0.27996826171875,0.2794189453125,0.6693115234375,5.25,-8.8125,-1.375,0.170000001788139,-9.73999977111816,0.46000000834465,-0.050000000745058,0.03999999910593,-0.050000000745058
1594154862088,-0.6279296875,-0.28076171875,0.2803955078125,0.66949462890625,4.5,-7.875,-1.0625,0.180000007152557,-9.82999992370606,0.469999998807907,-0.050000000745058,-0.03999999910593,-0.03999999910593
1594154862113,-0.62689208984375,-0.28204345703125,0.28155517578125,0.66949462890625,1.5,-7.25,-0.6875,0.180000007152557,-9.8100004196167,0.360000014305115,-0.050000000745058,-0.019999999552965,-0.170000001788139
1594154862133,-0.62652587890625,-0.28271484375,0.28228759765625,0.66925048828125,0.625,-6.25,0.25,0.200000002980232,-9.71000003814697,0.280000001192093,-0.029999999329448,0.070000000298023,-0.25
1594154862161,-0.62615966796875,-0.28326416015625,0.28314208984375,0.66900634765625,2.5625,-7.25,1.0625,0.189999997615814,-9.89000034332275,0.360000014305115,-0.03999999910593,-0.100000001490116,-0.170000001788139
1594154862183,-0.6253662109375,-0.28424072265625,0.28472900390625,0.6685791015625,1.9375,-7.875,1.0625,0.209999993443489,-9.94999980926514,0.419999986886978,-0.019999999552965,-0.159999996423721,-0.119999997317791
1594154862211,-0.6248779296875,-0.28515625,0.28619384765625,0.66802978515625,1.1875,-7.25,2.125,0.059999998658896,-9.88000011444092,0.490000009536743,-0.159999996423721,-0.090000003576279,-0.050000000745058
1594154862239,-0.62481689453125,-0.28558349609375,0.2872314453125,0.66748046875,-1.1875,-6.5625,3.0625,0.070000000298023,-9.93000030517578,0.529999971389771,-0.140000000596046,-0.140000000596046,-0.009999999776483
1594154862262,-0.62493896484375,-0.2861328125,0.2882080078125,0.666748046875,-1.375,-6.5,3.5625,0.119999997317791,-9.78999996185303,0.509999990463257,-0.070000000298023,0,-0.019999999552965
1594154862284,-0.6248779296875,-0.28680419921875,0.28973388671875,0.66583251953125,-1.1875,-6.8125,3.0625,0.119999997317791,-9.81999969482422,0.560000002384186,-0.059999998658896,-0.029999999329448,0.019999999552965
1594154862313,-0.624755859375,-0.28765869140625,0.29119873046875,0.6649169921875,-1,-6.8125,2.0625,0.119999997317791,-9.75,0.409999996423721,-0.050000000745058,0.029999999329448,-0.109999999403954
1594154862342,-0.62451171875,-0.28857421875,0.29241943359375,0.66424560546875,-0.9375,-6.1875,1,0.090000003576279,-9.85000038146973,0.469999998807907,-0.079999998211861,-0.059999998658896,-0.03999999910593
1594154862384,-0.62384033203125,-0.2900390625,0.2938232421875,0.66357421875,1.3125,-6.875,0.5625,0.150000005960464,-9.82999992370606,0.409999996423721,-0.019999999552965,-0.03999999910593,-0.100000001490116
1594154862412,-0.62347412109375,-0.2906494140625,0.29473876953125,0.66326904296875,1.625,-6.8125,0.75,0.090000003576279,-9.81999969482422,0.370000004768372,-0.079999998211861,-0.029999999329448,-0.140000000596046
1594154862434,-0.622802734375,-0.29150390625,0.296142578125,0.66290283203125,1.5,-6.375,1.3125,0.03999999910593,-9.96000003814697,0.529999971389771,-0.119999997317791,-0.170000001788139,0
1594154862462,-0.6226806640625,-0.2919921875,0.296875,0.6624755859375,-1.4375,-5.625,1.5,0.119999997317791,-9.89999961853027,0.5,0.019999999552965,0,-0.150000005960464
1594154862513,-0.62255859375,-0.2933349609375,0.298828125,0.66107177734375,-0.9375,-6.5,1.625,0.230000004172325,-9.85999965667725,0.379999995231628,0.070000000298023,-0.070000000298023,-0.129999995231628
1594154862534,-0.62249755859375,-0.2939453125,0.299560546875,0.6605224609375,-1.875,-5.75,1.3125,0.209999993443489,-9.80000019073486,0.419999986886978,0.059999998658896,-0.009999999776483,-0.079999998211861
1594154862563,-0.622314453125,-0.2950439453125,0.300537109375,0.6597900390625,0.4375,-6.5625,0.0625,0.219999998807907,-9.75,0.319999992847443,0.019999999552965,0.019999999552965,-0.129999995231628
1594154862584,-0.62152099609375,-0.2960205078125,0.30169677734375,0.65960693359375,2.0625,-6.5625,0.125,0.119999997317791,-9.85999965667725,0.419999986886978,-0.019999999552965,-0.070000000298023,-0.079999998211861
1594154862611,-0.62109375,-0.2967529296875,0.302490234375,0.6593017578125,0.6875,-7.25,0.25,0.100000001490116,-9.85000038146973,0.409999996423721,-0.050000000745058,-0.059999998658896,-0.090000003576279
1594154862637,-0.62054443359375,-0.29803466796875,0.3037109375,0.65869140625,0.375,-8.125,-0.25,0,-9.77999973297119,0.439999997615814,-0.159999996423721,0,-0.070000000298023
1594154862659,-0.6199951171875,-0.29901123046875,0.30462646484375,0.6583251953125,0.875,-8.625,-1.0625,-0.03999999910593,-9.84000015258789,0.430000007152557,-0.200000002980232,-0.050000000745058,-0.079999998211861
1594154862683,-0.61956787109375,-0.29998779296875,0.305419921875,0.65789794921875,0.3125,-7.6875,-1.3125,-0.019999999552965,-9.84000015258789,0.46000000834465,-0.180000007152557,-0.050000000745058,-0.050000000745058
1594154862714,-0.6190185546875,-0.301513671875,0.306640625,0.65716552734375,-0.875,-5.0625,-0.5,0.070000000298023,-9.81999969482422,0.479999989271164,-0.079999998211861,-0.029999999329448,-0.009999999776483
1594154862733,-0.61895751953125,-0.30181884765625,0.306884765625,0.656982421875,-1.625,-4.4375,-0.5,0.230000004172325,-9.73999977111816,0.439999997615814,0.059999998658896,0.03999999910593,-0.059999998658896
1594154862763,-0.61883544921875,-0.302734375,0.307373046875,0.656494140625,-0.8125,-4.125,-0.75,0.270000010728836,-9.76000022888184,0.400000005960465,0.189999997615814,0.019999999552965,-0.100000001490116
1594154862789,-0.61834716796875,-0.3038330078125,0.3077392578125,0.65618896484375,-0.1875,-4.8125,-1.5,0.340000003576279,-9.77000045776367,0.379999995231628,0.159999996423721,0.009999999776483,-0.109999999403954
1594154862807,-0.61798095703125,-0.3046875,0.3079833984375,0.656005859375,-0.0625,-5.125,-2.0625,0.310000002384186,-9.72999954223633,0.25,0.119999997317791,0.050000000745058,-0.239999994635582
1594154862834,-0.6175537109375,-0.30560302734375,0.308349609375,0.6558837890625,2.6875,-6,-2.125,0.209999993443489,-9.80000019073486,0.310000002384186,0.009999999776483,0,-0.180000007152557
1594154862867,-0.61627197265625,-0.30706787109375,0.30950927734375,0.6558837890625,2.4375,-5.6875,-1,0.219999998807907,-9.88000011444092,0.360000014305115,0.009999999776483,-0.090000003576279,-0.129999995231628
1594154862885,-0.61578369140625,-0.3076171875,0.31011962890625,0.65576171875,1.6875,-5.1875,0.375,0.25,-9.90999984741211,0.46000000834465,0.03999999910593,-0.119999997317791,-0.03999999910593
1594154862908,-0.615478515625,-0.30804443359375,0.310791015625,0.655517578125,0.75,-5.1875,1.125,0.25,-9.85000038146973,0.430000007152557,0.050000000745058,-0.059999998658896,-0.079999998211861
1594154862933,-0.6151123046875,-0.3084716796875,0.31158447265625,0.6552734375,1.25,-5.5625,1.25,0.310000002384186,-9.84000015258789,0.479999989271164,0.100000001490116,-0.050000000745058,-0.019999999552965
1594154862960,-0.6143798828125,-0.309326171875,0.31268310546875,0.65509033203125,2.1875,-6.625,-0.3125,0.28999999165535,-9.80000019073486,0.540000021457672,0.090000003576279,-0.009999999776483,0.009999999776483
1594154862984,-0.61358642578125,-0.3101806640625,0.31341552734375,0.655029296875,3.375,-8.6875,-2,0.170000001788139,-9.92000007629395,0.670000016689301,-0.029999999329448,-0.129999995231628,0.119999997317791
1594154863008,-0.61224365234375,-0.311767578125,0.314697265625,0.6549072265625,1.25,-9.1875,-2.125,0.259999990463257,-9.81999969482422,0.629999995231628,0.03999999910593,-0.029999999329448,0.079999998211861
1594154863033,-0.6116943359375,-0.31298828125,0.3155517578125,0.65447998046875,-0.5625,-9.8125,-0.6875,0.259999990463257,-9.76000022888184,0.569999992847443,0.019999999552965,0.009999999776483,-0.009999999776483
1594154863084,-0.61083984375,-0.315673828125,0.31829833984375,0.65264892578125,-1.4375,-9.3125,1.5,0.140000000596046,-9.69999980926514,0.439999997615814,-0.119999997317791,0.159999996423721,-0.119999997317791
1594154863108,-0.610595703125,-0.31658935546875,0.319580078125,0.65179443359375,-0.125,-5.1875,1.75,0.079999998211861,-9.67000007629395,0.409999996423721,-0.129999995231628,0.109999999403954,-0.109999999403954
1594154863133,-0.6104736328125,-0.31671142578125,0.3203125,0.6514892578125,0.625,-3.5,2.5625,0.140000000596046,-9.77000045776367,0.400000005960465,-0.059999998658896,0.009999999776483,-0.119999997317791
1594154863158,-0.610595703125,-0.31683349609375,0.3211669921875,0.65087890625,0.1875,-3.3125,2.9375,0.259999990463257,-9.64999961853027,0.230000004172325,0.059999998658896,0.129999995231628,-0.280000001192093
1594154863184,-0.6104736328125,-0.31695556640625,0.322021484375,0.6505126953125,2.4375,-4.375,3.75,0.239999994635582,-9.6899995803833,0.400000005960465,0.050000000745058,0.090000003576279,-0.109999999403954
1594154863209,-0.60955810546875,-0.31689453125,0.3238525390625,0.65045166015625,5.3125,-6.125,3.5625,0.280000001192093,-9.8100004196167,0.600000023841858,0.109999999403954,-0.019999999552965,0.050000000745058
1594154863232,-0.60858154296875,-0.317138671875,0.32525634765625,0.65057373046875,6.5,-8.25,2.1875,0.209999993443489,-9.86999988555908,0.649999976158142,0.03999999910593,-0.079999998211861,0.079999998211861
1594154863259,-0.60687255859375,-0.31787109375,0.32757568359375,0.650634765625,5,-9.75,2.0625,0.090000003576279,-10.0200004577637,0.790000021457672,-0.059999998658896,-0.230000004172325,0.180000007152557
1594154863282,-0.6063232421875,-0.3187255859375,0.328857421875,0.65008544921875,-0.875,-10.25,1.875,0.119999997317791,-9.82999992370606,0.740000009536743,-0.019999999552965,-0.03999999910593,0.140000000596046
1594154863308,-0.605712890625,-0.320068359375,0.330810546875,0.6490478515625,0.25,-10.25,2.375,0.009999999776483,-9.84000015258789,0.620000004768372,-0.119999997317791,-0.050000000745058,0.019999999552965
1594154863333,-0.60546875,-0.32080078125,0.33203125,0.64825439453125,-1.0625,-8.9375,2.625,0.100000001490116,-9.78999996185303,0.620000004768372,-0.029999999329448,0,0.019999999552965
1594154863370,-0.60467529296875,-0.322021484375,0.33416748046875,0.6473388671875,2,-7,1.625,0,-9.88000011444092,0.610000014305115,-0.119999997317791,-0.100000001490116,0.009999999776483
1594154863386,-0.60443115234375,-0.322265625,0.3345947265625,0.647216796875,1.625,-6.0625,1.375,0.009999999776483,-9.93000030517578,0.610000014305115,-0.100000001490116,-0.140000000596046,0.009999999776483
1594154863407,-0.60406494140625,-0.32293701171875,0.335693359375,0.64666748046875,-0.4375,-5.5625,1.25,0.140000000596046,-9.76000022888184,0.370000004768372,0.029999999329448,0.009999999776483,-0.219999998807907
1594154863433,-0.603759765625,-0.32342529296875,0.33648681640625,0.646240234375,1.875,-6.5,1.5625,0.109999999403954,-9.77999973297119,0.379999995231628,0,0,-0.219999998807907
1594154863458,-0.6033935546875,-0.32421875,0.337890625,0.64544677734375,-1.9375,-6.8125,2.125,0.059999998658896,-9.90999984741211,0.479999989271164,-0.029999999329448,-0.119999997317791,-0.109999999403954
1594154863489,-0.603271484375,-0.32537841796875,0.33917236328125,0.644287109375,-1.9375,-8.125,1.25,0.070000000298023,-9.72000026702881,0.389999985694885,-0.019999999552965,0.050000000745058,-0.189999997615814
1594154863507,-0.6029052734375,-0.32623291015625,0.340087890625,0.64373779296875,1,-8.4375,0.1875,0.009999999776483,-9.67000007629395,0.360000014305115,-0.070000000298023,0.109999999403954,-0.219999998807907
1594154863558,-0.60137939453125,-0.327880859375,0.34222412109375,0.64324951171875,1.0625,-6.625,0.6875,-0.009999999776483,-9.9399995803833,0.620000004768372,-0.109999999403954,-0.150000005960464,0.009999999776483
1594154863608,-0.60137939453125,-0.32916259765625,0.3436279296875,0.64178466796875,-0.875,-4.6875,2.3125,0.059999998658896,-9.72000026702881,0.409999996423721,-0.019999999552965,0.059999998658896,-0.170000001788139
1594154863635,-0.60125732421875,-0.32952880859375,0.344482421875,0.64129638671875,-0.125,-5.5,2.5,0.009999999776483,-9.75,0.469999998807907,-0.059999998658896,0.029999999329448,-0.109999999403954
1594154863658,-0.60101318359375,-0.3299560546875,0.34564208984375,0.640625,0.375,-4.375,2.1875,0.03999999910593,-9.8100004196167,0.509999990463257,-0.019999999552965,-0.019999999552965,-0.059999998658896
1594154863682,-0.6009521484375,-0.33013916015625,0.34619140625,0.640380859375,0.875,-2.875,1.9375,0.109999999403954,-9.76000022888184,0.46000000834465,0.03999999910593,0.019999999552965,-0.119999997317791
1594154863720,-0.600830078125,-0.33013916015625,0.346923828125,0.64007568359375,0.25,-1.75,2.125,0.079999998211861,-9.80000019073486,0.430000007152557,0.029999999329448,-0.009999999776483,-0.150000005960464
1594154863734,-0.600830078125,-0.33013916015625,0.3472900390625,0.63983154296875,0.5,-1.875,1.875,0.100000001490116,-9.77999973297119,0.439999997615814,0.050000000745058,0,-0.140000000596046
1594154863758,-0.60052490234375,-0.33026123046875,0.34814453125,0.6396484375,1.875,-3.75,1.8125,0.059999998658896,-9.84000015258789,0.479999989271164,0.019999999552965,-0.059999998658896,-0.100000001490116
1594154863794,-0.6002197265625,-0.33050537109375,0.34893798828125,0.63934326171875,0.125,-5.6875,4,0.200000002980232,-9.82999992370606,0.540000021457672,0.170000001788139,-0.03999999910593,-0.050000000745058
1594154863814,-0.59991455078125,-0.3310546875,0.3504638671875,0.63848876953125,0.8125,-7.1875,3.4375,0.25,-9.72000026702881,0.46000000834465,0.230000004172325,0.059999998658896,-0.129999995231628
1594154863832,-0.59918212890625,-0.33160400390625,0.3516845703125,0.63818359375,4.125,-8.75,2,0.100000001490116,-9.8100004196167,0.540000021457672,0.079999998211861,-0.019999999552965,-0.059999998658896
1594154863858,-0.597900390625,-0.33270263671875,0.35333251953125,0.63800048828125,2.5,-8.25,0,-0.070000000298023,-9.89000034332275,0.649999976158142,-0.090000003576279,-0.109999999403954,0.019999999552965
1594154863884,-0.5972900390625,-0.3333740234375,0.3541259765625,0.6376953125,0.875,-7,-0.0625,-0.140000000596046,-9.89000034332275,0.689999997615814,-0.159999996423721,-0.109999999403954,0.059999998658896
1594154863908,-0.59698486328125,-0.33447265625,0.35504150390625,0.636962890625,-1.625,-6.0625,-0.6875,-0.180000007152557,-9.67000007629395,0.439999997615814,-0.200000002980232,0.109999999403954,-0.170000001788139
1594154863932,-0.59661865234375,-0.3349609375,0.3555908203125,0.63665771484375,1.5,-5,0.0625,-0.140000000596046,-9.75,0.469999998807907,-0.159999996423721,0.029999999329448,-0.150000005960464
1594154863959,-0.59600830078125,-0.3353271484375,0.35638427734375,0.6365966796875,1.9375,-3.375,0.5,-0.059999998658896,-9.84000015258789,0.569999992847443,-0.079999998211861,-0.059999998658896,-0.050000000745058
1594154863986,-0.5958251953125,-0.33563232421875,0.35675048828125,0.636474609375,0,-2.9375,-0.125,-0.03999999910593,-9.72999954223633,0.509999990463257,-0.059999998658896,0.050000000745058,-0.119999997317791
1594154864011,-0.595458984375,-0.3360595703125,0.35711669921875,0.6363525390625,1.9375,-2.25,-0.9375,0,-9.67000007629395,0.479999989271164,-0.029999999329448,0.100000001490116,-0.150000005960464
1594154864061,-0.59417724609375,-0.33612060546875,0.358154296875,0.636962890625,3.9375,-1.75,-0.3125,0,-9.81999969482422,0.579999983310699,-0.029999999329448,-0.03999999910593,-0.079999998211861
1594154864085,-0.59381103515625,-0.3359375,0.35845947265625,0.63720703125,2.6875,-0.5,1.0625,0.009999999776483,-9.84000015258789,0.699999988079071,0,-0.059999998658896,0.019999999552965
1594154864109,-0.59356689453125,-0.33551025390625,0.35894775390625,0.63739013671875,2.3125,-0.875,1.625,-0.009999999776483,-9.77999973297119,0.639999985694885,-0.029999999329448,0,-0.03999999910593
1594154864133,-0.59326171875,-0.3353271484375,0.359375,0.63751220703125,3.5625,-1.25,1.0625,0.029999999329448,-9.85999965667725,0.600000023841858,0.019999999552965,-0.079999998211861,-0.090000003576279
1594154864159,-0.59283447265625,-0.33502197265625,0.36004638671875,0.6376953125,2,-1.4375,1.9375,0.109999999403954,-9.8100004196167,0.660000026226044,0.109999999403954,-0.029999999329448,-0.03999999910593
1594154864191,-0.59259033203125,-0.33502197265625,0.3604736328125,0.6376953125,2,-2.0625,1.75,0.100000001490116,-9.6899995803833,0.660000026226044,0.100000001490116,0.079999998211861,-0.050000000745058
1594154864210,-0.59149169921875,-0.3349609375,0.36175537109375,0.6380615234375,7.0625,-4.75,1.75,0.100000001490116,-9.84000015258789,0.740000009536743,0.100000001490116,-0.059999998658896,0
1594154864237,-0.59063720703125,-0.33477783203125,0.36285400390625,0.63824462890625,5.375,-4.375,2.9375,-0.100000001490116,-9.84000015258789,0.819999992847443,-0.090000003576279,-0.059999998658896,0.059999998658896
1594154864260,-0.5899658203125,-0.33477783203125,0.3643798828125,0.63800048828125,3.25,-5.125,3.375,-0.03999999910593,-9.77999973297119,0.759999990463257,-0.009999999776483,-0.009999999776483,-0.009999999776483
1594154864285,-0.58941650390625,-0.3345947265625,0.36553955078125,0.637939453125,4.4375,-4.5,4,-0.090000003576279,-9.93000030517578,1,-0.050000000745058,-0.150000005960464,0.209999993443489
1594154864310,-0.58905029296875,-0.3345947265625,0.36712646484375,0.63739013671875,-0.4375,-4.9375,4.3125,-0.119999997317791,-9.8100004196167,0.870000004768372,-0.070000000298023,-0.03999999910593,0.059999998658896
1594154864333,-0.58917236328125,-0.33477783203125,0.367919921875,0.63677978515625,-1.5,-4.5625,3.4375,-0.109999999403954,-9.6899995803833,0.740000009536743,-0.03999999910593,0.079999998211861,-0.050000000745058
1594154864360,-0.588623046875,-0.3349609375,0.36907958984375,0.636474609375,3.9375,-4.125,1.6875,-0.230000004172325,-9.77999973297119,0.829999983310699,-0.150000005960464,-0.009999999776483,0.019999999552965
1594154864385,-0.5880126953125,-0.3349609375,0.369873046875,0.6365966796875,3.75,-3.875,0.6875,-0.330000013113022,-9.84000015258789,0.889999985694885,-0.239999994635582,-0.070000000298023,0.059999998658896
1594154864411,-0.58721923828125,-0.33502197265625,0.37078857421875,0.63677978515625,2.9375,-2.5,-0.3125,-0.219999998807907,-9.93000030517578,0.9200000166893,-0.140000000596046,-0.159999996423721,0.079999998211861
1594154864433,-0.5870361328125,-0.33502197265625,0.3709716796875,0.63677978515625,0.5,-0.9375,-0.0625,-0.170000001788139,-9.85000038146973,0.870000004768372,-0.079999998211861,-0.079999998211861,0.029999999329448
1594154864460,-0.5870361328125,-0.3349609375,0.37103271484375,0.63677978515625,1,-0.0625,0.125,-0.170000001788139,-9.84000015258789,0.75,-0.079999998211861,-0.070000000298023,-0.090000003576279
1594154864487,-0.5869140625,-0.33489990234375,0.37109375,0.63690185546875,1.1875,-0.5,-0.1875,-0.170000001788139,-9.81999969482422,0.72000002861023,-0.079999998211861,-0.050000000745058,-0.119999997317791
1594154864510,-0.5869140625,-0.33465576171875,0.37127685546875,0.636962890625,-0.1875,1.6875,1.25,-0.180000007152557,-9.89000034332275,0.860000014305115,-0.090000003576279,-0.119999997317791,0
1594154864535,-0.58740234375,-0.3343505859375,0.37115478515625,0.63677978515625,-1.9375,2.25,1.9375,-0.050000000745058,-9.73999977111816,0.769999980926514,0.03999999910593,0.019999999552965,-0.070000000298023
1594154864560,-0.5877685546875,-0.33392333984375,0.37115478515625,0.6365966796875,0.4375,0.8125,1.75,-0.070000000298023,-9.72999954223633,0.699999988079071,0.029999999329448,0.029999999329448,-0.129999995231628
1594154864583,-0.58770751953125,-0.333740234375,0.37139892578125,0.6365966796875,1.25,-0.1875,1.5,-0.009999999776483,-9.8100004196167,0.740000009536743,0.100000001490116,-0.03999999910593,-0.090000003576279
1594154864611,-0.5875244140625,-0.3336181640625,0.37176513671875,0.63665771484375,1.125,-1.4375,0.625,0,-9.85000038146973,0.870000004768372,0.109999999403954,-0.079999998211861,0.009999999776483
1594154864636,-0.58740234375,-0.333740234375,0.37188720703125,0.6365966796875,0.375,-1.5625,0.3125,-0.029999999329448,-9.80000019073486,0.870000004768372,0.079999998211861,-0.029999999329448,0.009999999776483
1594154864661,-0.5872802734375,-0.333984375,0.3720703125,0.636474609375,0.4375,-1.25,0.1875,-0.059999998658896,-9.69999980926514,0.72000002861023,0.03999999910593,0.059999998658896,-0.119999997317791
1594154864689,-0.58697509765625,-0.3341064453125,0.372314453125,0.63653564453125,1.9375,-1.9375,0.1875,-0.070000000298023,-9.72999954223633,0.75,0.03999999910593,0.019999999552965,-0.100000001490116
1594154864735,-0.58612060546875,-0.3341064453125,0.37353515625,0.63665771484375,1.5625,-2.125,1.125,-0.079999998211861,-9.75,0.779999971389771,0.03999999910593,0.009999999776483,-0.090000003576279
1594154864761,-0.5858154296875,-0.3341064453125,0.37396240234375,0.63665771484375,3.5625,-2.875,1,-0.070000000298023,-9.85999965667725,0.829999983310699,0.050000000745058,-0.090000003576279,-0.050000000745058
1594154864813,-0.58465576171875,-0.33428955078125,0.3756103515625,0.63671875,0.3125,-2.8125,1.1875,-0.079999998211861,-9.76000022888184,0.870000004768372,0.03999999910593,0,-0.029999999329448
1594154864834,-0.58441162109375,-0.33447265625,0.3760986328125,0.636474609375,1.125,-3.625,1.375,-0.109999999403954,-9.8100004196167,0.860000014305115,0.019999999552965,-0.050000000745058,-0.050000000745058
1594154864861,-0.58416748046875,-0.334716796875,0.37664794921875,0.63623046875,1.0625,-4.375,1.1875,-0.170000001788139,-9.78999996185303,0.769999980926514,-0.029999999329448,-0.019999999552965,-0.140000000596046
1594154864885,-0.58367919921875,-0.33514404296875,0.37762451171875,0.63592529296875,1.875,-4.3125,1.3125,-0.170000001788139,-9.81999969482422,0.889999985694885,-0.019999999552965,-0.050000000745058,-0.029999999329448
1594154864910,-0.58331298828125,-0.33551025390625,0.378173828125,0.6357421875,0.625,-4.125,0.4375,-0.129999995231628,-9.72000026702881,0.779999971389771,-0.019999999552965,0.070000000298023,-0.170000001788139
1594154864935,-0.582763671875,-0.3360595703125,0.3787841796875,0.6356201171875,3,-3.6875,-0.625,-0.209999993443489,-9.77999973297119,0.839999973773956,-0.070000000298023,-0.019999999552965,-0.079999998211861
1594154864960,-0.58221435546875,-0.336181640625,0.3792724609375,0.6357421875,2.8125,-3,-0.125,-0.150000005960464,-9.84000015258789,0.959999978542328,-0.009999999776483,-0.009999999776483,-0.059999998658896
1594154864989,-0.58184814453125,-0.3365478515625,0.37969970703125,0.6356201171875,0.75,-2.625,-0.375,0,-9.65999984741211,0.670000016689301,0.140000000596046,0.090000003576279,-0.270000010728836
1594154865021,-0.5811767578125,-0.336669921875,0.38006591796875,0.635986328125,7.3125,-2.5625,-0.875,0,-9.89999961853027,0.910000026226044,-0.050000000745058,-0.119999997317791,0.019999999552965
1594154865036,-0.579833984375,-0.33660888671875,0.38092041015625,0.63671875,5.4375,-3.0625,0,-0.189999997615814,-9.89000034332275,1.00999999046326,-0.059999998658896,-0.140000000596046,0.019999999552965
1594154865061,-0.579345703125,-0.336669921875,0.38134765625,0.6368408203125,2.25,-2.6875,0.375,-0.100000001490116,-9.72999954223633,0.889999985694885,0.009999999776483,0.009999999776483,-0.100000001490116
1594154865087,-0.57867431640625,-0.33697509765625,0.3819580078125,0.636962890625,2.6875,-3.0625,0.25,-0.119999997317791,-9.9399995803833,1.03999996185303,0,-0.189999997615814,0.019999999552965
1594154865107,-0.578125,-0.33709716796875,0.3824462890625,0.6370849609375,3.4375,-3.4375,0.375,-0.150000005960464,-9.85999965667725,1.05999994277954,-0.029999999329448,-0.109999999403954,0.03999999910593
1594154865134,-0.577392578125,-0.33746337890625,0.38323974609375,0.6370849609375,2.1875,-3.75,0.5,-0.119999997317791,-9.81999969482422,1.07000005245209,0,-0.070000000298023,0.03999999910593
1594154865161,-0.576904296875,-0.33782958984375,0.38372802734375,0.63702392578125,1.8125,-4.375,0,-0.170000001788139,-9.77999973297119,1.10000002384186,-0.079999998211861,-0.059999998658896,0
1594154865183,-0.5762939453125,-0.3385009765625,0.38446044921875,0.63677978515625,0.5625,-4.875,-0.6875,-0.159999996423721,-9.78999996185303,1,-0.03999999910593,-0.03999999910593,-0.03999999910593
1594154865208,-0.57574462890625,-0.339111328125,0.3848876953125,0.63665771484375,1.125,-4.9375,-1.3125,-0.079999998211861,-9.72000026702881,0.97000002861023,0.019999999552965,0.009999999776483,-0.070000000298023
1594154865258,-0.5743408203125,-0.3402099609375,0.3863525390625,0.636474609375,3.1875,-5.3125,0.25,-0.059999998658896,-9.73999977111816,0.949999988079071,0.029999999329448,0,-0.100000001490116
1594154865288,-0.57305908203125,-0.34063720703125,0.3875732421875,0.63671875,5.75,-5.625,0.125,-0.219999998807907,-9.84000015258789,1.10000002384186,-0.109999999403954,-0.100000001490116,0.009999999776483
1594154865313,-0.5723876953125,-0.3409423828125,0.38824462890625,0.63671875,1.5,-4.375,0.625,-0.090000003576279,-9.72000026702881,1.12999999523163,0.009999999776483,0.009999999776483,0.029999999329448
1594154865338,-0.5716552734375,-0.34130859375,0.38922119140625,0.6365966796875,2.5625,-4.75,1.0625,-0.090000003576279,-9.72000026702881,1.13999998569489,0,0.019999999552965,0.019999999552965
1594154865357,-0.571044921875,-0.34149169921875,0.39007568359375,0.636474609375,3.6875,-5.3125,1.75,-0.159999996423721,-9.78999996185303,1.17999994754791,-0.050000000745058,-0.050000000745058,0.059999998658896
1594154865386,-0.5701904296875,-0.3416748046875,0.391357421875,0.6363525390625,2.25,-4.125,1.75,-0.119999997317791,-9.84000015258789,1.22000002861023,-0.009999999776483,-0.100000001490116,0.079999998211861
1594154865407,-0.56976318359375,-0.34173583984375,0.39208984375,0.63629150390625,3.125,-4.0625,1.375,-0.150000005960464,-9.8100004196167,1.32000005245209,-0.03999999910593,-0.070000000298023,0.170000001788139
1594154865436,-0.569091796875,-0.34210205078125,0.3931884765625,0.635986328125,1.625,-5,1.5625,-0.239999994635582,-9.85000038146973,1.14999997615814,-0.119999997317791,-0.109999999403954,0
1594154865457,-0.56866455078125,-0.34246826171875,0.3939208984375,0.6357421875,1,-5.625,1,-0.180000007152557,-9.82999992370606,1.1599999666214,-0.059999998658896,-0.090000003576279,0
1594154865484,-0.5679931640625,-0.34332275390625,0.3948974609375,0.63525390625,0.625,-6.375,0.5625,-0.159999996423721,-9.8100004196167,1.1599999666214,-0.03999999910593,-0.070000000298023,0
1594154865508,-0.567626953125,-0.34393310546875,0.3956298828125,0.63482666015625,0.375,-6.5,1.125,-0.200000002980232,-9.73999977111816,1.13999998569489,-0.079999998211861,0,-0.019999999552965
1594154865547,-0.567138671875,-0.34478759765625,0.3968505859375,0.634033203125,-0.4375,-6.375,1.625,-0.209999993443489,-9.72999954223633,1.00999999046326,-0.079999998211861,0,-0.150000005960464
1594154865560,-0.5670166015625,-0.3453369140625,0.39739990234375,0.63348388671875,-1,-5,1.1875,-0.189999997615814,-9.71000003814697,0.959999978542328,-0.059999998658896,0.019999999552965,-0.189999997615814
1594154865585,-0.5665283203125,-0.34576416015625,0.39837646484375,0.633056640625,2.375,-4.4375,1.25,-0.200000002980232,-9.69999980926514,1.0900000333786,-0.059999998658896,0.029999999329448,-0.070000000298023
1594154865608,-0.56622314453125,-0.34600830078125,0.3990478515625,0.6328125,1.1875,-4.1875,1.125,-0.200000002980232,-9.69999980926514,1,-0.059999998658896,0.019999999552965,-0.159999996423721
1594154865637,-0.56573486328125,-0.3460693359375,0.39984130859375,0.6326904296875,2.4375,-2.375,1.5,-0.180000007152557,-9.85000038146973,1.13999998569489,-0.03999999910593,-0.119999997317791,-0.029999999329448
1594154865657,-0.565673828125,-0.34613037109375,0.4002685546875,0.63250732421875,0.375,-1.9375,1.25,-0.119999997317791,-9.72000026702881,1.10000002384186,0.019999999552965,0.009999999776483,-0.070000000298023
1594154865686,-0.565185546875,-0.3460693359375,0.40093994140625,0.63250732421875,3.6875,-2.25,0.9375,-0.109999999403954,-9.6899995803833,1.14999997615814,0.029999999329448,0.03999999910593,-0.029999999329448
1594154865707,-0.564453125,-0.345947265625,0.401611328125,0.63275146484375,5.9375,-3,0.8125,-0.079999998211861,-9.80000019073486,1.12000000476837,0.059999998658896,-0.070000000298023,-0.079999998211861
1594154865736,-0.56341552734375,-0.34588623046875,0.402587890625,0.63311767578125,2.875,-2.8125,0.25,-0.100000001490116,-9.93000030517578,1.37999999523163,0.03999999910593,-0.200000002980232,0.150000005960464
1594154865758,-0.56304931640625,-0.3460693359375,0.4029541015625,0.63311767578125,1.375,-3.0625,0.125,-0.059999998658896,-9.85000038146973,1.33000004291534,0.090000003576279,-0.129999995231628,0.090000003576279
1594154865787,-0.56243896484375,-0.34661865234375,0.40362548828125,0.63299560546875,1.75,-4.8125,0.1875,-0.090000003576279,-9.72000026702881,1.16999995708466,0.050000000745058,0,-0.070000000298023
1594154865808,-0.56170654296875,-0.34698486328125,0.404296875,0.6329345703125,3.3125,-5.75,0.4375,-0.150000005960464,-9.76000022888184,1.25999999046326,-0.009999999776483,-0.03999999910593,0
1594154865839,-0.5609130859375,-0.3475341796875,0.40545654296875,0.63262939453125,0.4375,-5.1875,1.5,-0.129999995231628,-9.82999992370606,1.4099999666214,0.009999999776483,-0.100000001490116,0.140000000596046
1594154865857,-0.56085205078125,-0.34808349609375,0.40606689453125,0.6319580078125,-2.25,-5.4375,1.9375,-0.140000000596046,-9.6899995803833,1.21000003814697,0,0.019999999552965,-0.03999999910593
1594154865888,-0.560546875,-0.34869384765625,0.4071044921875,0.6312255859375,-0.0625,-5.375,1.9375,-0.200000002980232,-9.76000022888184,1.23000001907349,-0.03999999910593,-0.029999999329448,-0.019999999552965
1594154865909,-0.56024169921875,-0.3492431640625,0.40777587890625,0.6307373046875,-0.8125,-5.9375,1.0625,-0.200000002980232,-9.72000026702881,1.21000003814697,-0.03999999910593,0,-0.03999999910593
1594154865959,-0.5592041015625,-0.35107421875,0.409423828125,0.629638671875,0.0625,-7.25,0.125,-0.189999997615814,-9.73999977111816,1.16999995708466,-0.029999999329448,-0.009999999776483,-0.070000000298023
1594154865986,-0.558349609375,-0.3524169921875,0.4105224609375,0.62890625,0.5,-8.1875,-0.6875,-0.25,-9.72000026702881,1.1599999666214,-0.100000001490116,0,-0.090000003576279
1594154866007,-0.55767822265625,-0.353271484375,0.41119384765625,0.62860107421875,0.875,-7.5625,-1.125,-0.180000007152557,-9.75,1.22000002861023,-0.029999999329448,-0.029999999329448,-0.029999999329448
1594154866036,-0.55670166015625,-0.35443115234375,0.41204833984375,0.62823486328125,1.25,-6.625,-1.6875,-0.159999996423721,-9.6899995803833,1.1599999666214,-0.029999999329448,0.029999999329448,-0.090000003576279
1594154866058,-0.555908203125,-0.35498046875,0.41259765625,0.6282958984375,3.25,-5.3125,-1.125,-0.300000011920929,-9.76000022888184,1.23000001907349,-0.170000001788139,-0.03999999910593,-0.03999999910593
1594154866087,-0.55517578125,-0.35546875,0.41302490234375,0.62841796875,1.25,-1.875,-1.3125,-0.189999997615814,-9.8100004196167,1.28999996185303,-0.070000000298023,-0.090000003576279,0.009999999776483
1594154866136,-0.554443359375,-0.35565185546875,0.41339111328125,0.628662109375,2.9375,-2,0.125,-0.170000001788139,-9.85000038146973,1.25,-0.059999998658896,-0.129999995231628,-0.03999999910593
1594154866159,-0.5540771484375,-0.355712890625,0.413818359375,0.628662109375,1.75,-2.5,0.875,-0.140000000596046,-9.86999988555908,1.3400000333786,-0.029999999329448,-0.150000005960464,0.029999999329448
1594154866199,-0.5538330078125,-0.35614013671875,0.41436767578125,0.6282958984375,-0.875,-3.625,-0.4375,-0.319999992847443,-9.81999969482422,1.46000003814697,-0.209999993443489,-0.100000001490116,0.159999996423721
1594154866209,-0.55364990234375,-0.35662841796875,0.41461181640625,0.62799072265625,-1.4375,-4,-0.9375,0.019999999552965,-9.73999977111816,1.05999994277954,0.129999995231628,-0.019999999552965,-0.230000004172325
1594154866237,-0.5533447265625,-0.3570556640625,0.41497802734375,0.62774658203125,-0.6875,-3.25,-0.3125,-0.109999999403954,-9.72000026702881,1.20000004768372,0,-0.009999999776483,-0.090000003576279
1594154866259,-0.55303955078125,-0.357666015625,0.4154052734375,0.62744140625,0.4375,-3.4375,-1,-0.129999995231628,-9.68000030517578,1.19000005722046,-0.019999999552965,0.029999999329448,-0.100000001490116
1594154866288,-0.55230712890625,-0.35791015625,0.4158935546875,0.62762451171875,3.0625,-2.3125,-0.4375,-0.150000005960464,-9.85000038146973,1.37999999523163,-0.050000000745058,-0.129999995231628,0.070000000298023
1594154866308,-0.552001953125,-0.3580322265625,0.41619873046875,0.6275634765625,0.6875,-2.4375,0.625,-0.090000003576279,-9.80000019073486,1.37999999523163,0,-0.079999998211861,0.070000000298023
1594154866337,-0.55194091796875,-0.35821533203125,0.41656494140625,0.62725830078125,-2.5625,-2.5,1.6875,-0.029999999329448,-9.67000007629395,1.27999997138977,0.070000000298023,0.03999999910593,-0.019999999552965
1594154866359,-0.55224609375,-0.35870361328125,0.41705322265625,0.62640380859375,-2.4375,-3.3125,1.875,-0.059999998658896,-9.60999965667725,1.20000004768372,0.03999999910593,0.100000001490116,-0.090000003576279
1594154866387,-0.55218505859375,-0.359130859375,0.41748046875,0.6259765625,-0.1875,-3.75,0.625,-0.079999998211861,-9.63000011444092,1.12999999523163,0.029999999329448,0.079999998211861,-0.159999996423721
1594154866408,-0.55169677734375,-0.35955810546875,0.4180908203125,0.625732421875,1.6875,-3.625,0,-0.090000003576279,-9.72000026702881,1.16999995708466,0.009999999776483,-0.009999999776483,-0.119999997317791
1594154866461,-0.55029296875,-0.360107421875,0.41943359375,0.62579345703125,3.375,-4.5625,-0.1875,-0.109999999403954,-9.72999954223633,1.33000004291534,0,-0.009999999776483,0
1594154866487,-0.549560546875,-0.36029052734375,0.4200439453125,0.6258544921875,4.4375,-4.5625,-0.0625,-0.150000005960464,-9.80000019073486,1.37000000476837,-0.050000000745058,-0.090000003576279,0.019999999552965
1594154866510,-0.54840087890625,-0.360595703125,0.42108154296875,0.6259765625,2.875,-4.4375,0.4375,-0.150000005960464,-9.94999980926514,1.51999998092651,-0.050000000745058,-0.230000004172325,0.159999996423721
1594154866537,-0.54815673828125,-0.361083984375,0.42144775390625,0.62567138671875,-0.9375,-4.375,-0.0625,-0.109999999403954,-9.68000030517578,1.27999997138977,-0.009999999776483,0.019999999552965,-0.070000000298023
1594154866560,-0.5474853515625,-0.36181640625,0.42205810546875,0.62548828125,1.6875,-4.875,-1.25,-0.219999998807907,-9.63000011444092,1.20000004768372,-0.119999997317791,0.070000000298023,-0.150000005960464
1594154866587,-0.546630859375,-0.36236572265625,0.42254638671875,0.62554931640625,4.1875,-5.75,-2,-0.100000001490116,-9.80000019073486,1.42999994754791,-0.019999999552965,-0.090000003576279,0.050000000745058
1594154866615,-0.54559326171875,-0.3626708984375,0.4232177734375,0.62579345703125,3.875,-4.8125,-1.5625,-0.119999997317791,-9.80000019073486,1.44000005722046,-0.050000000745058,-0.090000003576279,0.03999999910593
1594154866639,-0.544189453125,-0.36376953125,0.4241943359375,0.62579345703125,0.9375,-5.75,-1.375,-0.159999996423721,-9.71000003814697,1.36000001430511,-0.090000003576279,-0.009999999776483,-0.029999999329448
1594154866658,-0.54388427734375,-0.364013671875,0.4244384765625,0.625732421875,1.1875,-5.625,-0.8125,-0.159999996423721,-9.77000045776367,1.35000002384186,-0.100000001490116,-0.070000000298023,-0.050000000745058
1594154866687,-0.54327392578125,-0.3648681640625,0.4251708984375,0.625244140625,-0.3125,-4.8125,0,-0.109999999403954,-9.6899995803833,1.26999998092651,-0.059999998658896,0,-0.129999995231628
1594154866708,-0.5428466796875,-0.3653564453125,0.42584228515625,0.62493896484375,1.375,-3.375,0.75,-0.090000003576279,-9.73999977111816,1.3400000333786,-0.029999999329448,-0.029999999329448,-0.059999998658896
1594154866738,-0.54241943359375,-0.365478515625,0.4263916015625,0.62481689453125,2.1875,-3.3125,0.875,-0.140000000596046,-9.76000022888184,1.36000001430511,-0.079999998211861,-0.059999998658896,-0.050000000745058
1594154866758,-0.5419921875,-0.365478515625,0.4268798828125,0.6248779296875,2.75,-1.1875,1.4375,-0.159999996423721,-9.85999965667725,1.46000003814697,-0.100000001490116,-0.159999996423721,0.029999999329448
1594154866788,-0.54193115234375,-0.36517333984375,0.42730712890625,0.62481689453125,0.3125,-0.3125,1.6875,-0.140000000596046,-9.72000026702881,1.37000000476837,-0.070000000298023,-0.019999999552965,-0.050000000745058
1594154866809,-0.5418701171875,-0.3651123046875,0.4276123046875,0.62469482421875,0.75,-1.6875,1.3125,-0.200000002980232,-9.6899995803833,1.32000005245209,-0.129999995231628,0,-0.100000001490116
1594154866838,-0.54150390625,-0.36517333984375,0.42828369140625,0.62451171875,1.5625,-2.5,1.5,-0.209999993443489,-9.80000019073486,1.47000002861023,-0.129999995231628,-0.100000001490116,0.029999999329448
1594154866888,-0.54144287109375,-0.36541748046875,0.42901611328125,0.6239013671875,-0.3125,-2,1.25,-0.170000001788139,-9.6899995803833,1.39999997615814,-0.090000003576279,0,-0.029999999329448
1594154866926,-0.54132080078125,-0.36553955078125,0.42950439453125,0.62359619140625,0.375,-1.75,1.125,-0.159999996423721,-9.72000026702881,1.41999995708466,-0.100000001490116,-0.050000000745058,-0.03999999910593
1594154866957,-0.5411376953125,-0.3658447265625,0.4298095703125,0.6234130859375,0.0625,-1.3125,0.125,-0.029999999329448,-9.68000030517578,1.38999998569489,0.050000000745058,0.009999999776483,-0.029999999329448
1594154866985,-0.54083251953125,-0.3660888671875,0.43011474609375,0.623291015625,1.125,-2.3125,0.375,-0.070000000298023,-9.78999996185303,1.37000000476837,0.009999999776483,-0.090000003576279,-0.070000000298023
1594154867009,-0.54052734375,-0.36627197265625,0.430419921875,0.62322998046875,0.6875,-2.5,0.25,-0.079999998211861,-9.77999973297119,1.39999997615814,-0.019999999552965,-0.03999999910593,-0.059999998658896
1594154867039,-0.540283203125,-0.36663818359375,0.43072509765625,0.62298583984375,0.375,-2.5,0.125,-0.100000001490116,-9.75,1.37000000476837,-0.009999999776483,-0.079999998211861,0
1594154867064,-0.5399169921875,-0.36688232421875,0.43109130859375,0.6229248046875,0.375,-1.875,0.5,-0.100000001490116,-9.77999973297119,1.45000004768372,-0.019999999552965,-0.079999998211861,0
1594154867082,-0.53985595703125,-0.3670654296875,0.43133544921875,0.62274169921875,-0.6875,-2,1.3125,-0.059999998658896,-9.77000045776367,1.41999995708466,0.009999999776483,-0.070000000298023,-0.019999999552965
1594154867110,-0.5399169921875,-0.36724853515625,0.43157958984375,0.62237548828125,-1.9375,-2.5625,0.9375,-0.100000001490116,-9.6899995803833,1.41999995708466,-0.009999999776483,0,-0.009999999776483
1594154867133,-0.5400390625,-0.36767578125,0.431884765625,0.62176513671875,-2,-2.1875,1.125,-0.03999999910593,-9.6899995803833,1.36000001430511,0.03999999910593,0,-0.059999998658896
1594154867158,-0.53997802734375,-0.367919921875,0.43212890625,0.62158203125,0.25,-2.5,0.0625,-0.109999999403954,-9.65999984741211,1.42999994754791,-0.019999999552965,0.029999999329448,0
1594154867183,-0.53936767578125,-0.36846923828125,0.4324951171875,0.6214599609375,0.6875,-3.375,-1.0625,-0.150000005960464,-9.72000026702881,1.38999998569489,-0.070000000298023,-0.019999999552965,-0.03999999910593
1594154867233,-0.53851318359375,-0.36968994140625,0.4332275390625,0.6209716796875,0.25,-4.375,-0.5,0,-9.64999961853027,1.29999995231628,0.070000000298023,0.03999999910593,-0.129999995231628
1594154867258,-0.5380859375,-0.37005615234375,0.4337158203125,0.62078857421875,1.4375,-4.1875,-0.125,-0.050000000745058,-9.65999984741211,1.32000005245209,0.009999999776483,0.029999999329448,-0.109999999403954
1594154867283,-0.53717041015625,-0.3704833984375,0.4345703125,0.62078857421875,3.625,-5.0625,-0.625,-0.100000001490116,-9.72999954223633,1.35000002384186,-0.03999999910593,-0.03999999910593,-0.100000001490116
1594154867310,-0.53643798828125,-0.37091064453125,0.4351806640625,0.6207275390625,2.5,-5.3125,-0.5,-0.070000000298023,-9.76000022888184,1.45000004768372,-0.009999999776483,-0.070000000298023,-0.009999999776483
1594154867332,-0.5355224609375,-0.3714599609375,0.43609619140625,0.62054443359375,2,-5.125,-0.0625,-0.070000000298023,-9.71000003814697,1.47000002861023,-0.009999999776483,-0.019999999552965,0
1594154867358,-0.5350341796875,-0.371826171875,0.4366455078125,0.620361328125,1.25,-4.375,0.75,-0.129999995231628,-9.68000030517578,1.50999999046326,-0.079999998211861,0.009999999776483,0.029999999329448
1594154867383,-0.53448486328125,-0.3720703125,0.4375,0.62005615234375,2.125,-3.625,1.375,-0.059999998658896,-9.72000026702881,1.62000000476837,0,-0.019999999552965,0.129999995231628
1594154867410,-0.53411865234375,-0.3721923828125,0.43804931640625,0.61993408203125,1.125,-3.25,1.0625,-0.090000003576279,-9.77999973297119,1.70000004768372,-0.029999999329448,-0.090000003576279,0.200000002980232
1594154867460,-0.5335693359375,-0.37298583984375,0.4388427734375,0.619384765625,0.6875,-4.1875,-0.625,-0.100000001490116,-9.72000026702881,1.54999995231628,-0.03999999910593,-0.029999999329448,0.050000000745058
1594154867483,-0.532958984375,-0.3736572265625,0.439453125,0.6190185546875,0.5,-4.125,0.125,-0.100000001490116,-9.80000019073486,1.54999995231628,-0.03999999910593,-0.109999999403954,0.059999998658896
1594154867510,-0.53271484375,-0.3741455078125,0.43975830078125,0.61871337890625,-1.25,-4.375,-0.125,-0.059999998658896,-9.77000045776367,1.50999999046326,-0.009999999776483,-0.079999998211861,0.019999999552965
1594154867533,-0.53228759765625,-0.375,0.44036865234375,0.6181640625,-0.1875,-5.0625,-0.375,-0.100000001490116,-9.68000030517578,1.35000002384186,-0.050000000745058,0,-0.129999995231628
1594154867559,-0.5318603515625,-0.37542724609375,0.44085693359375,0.617919921875,0.8125,-4.5625,0,-0.150000005960464,-9.72000026702881,1.41999995708466,-0.100000001490116,-0.029999999329448,-0.059999998658896
1594154867583,-0.53167724609375,-0.37603759765625,0.44134521484375,0.61737060546875,-1.9375,-2.6875,0.9375,-0.100000001490116,-9.6899995803833,1.41999995708466,-0.050000000745058,0,-0.059999998658896
1594154867607,-0.53167724609375,-0.376220703125,0.441650390625,0.61700439453125,-0.4375,-2.25,1.25,-0.100000001490116,-9.65999984741211,1.37000000476837,-0.03999999910593,0.029999999329448,-0.109999999403954
1594154867645,-0.5313720703125,-0.3765869140625,0.4422607421875,0.6165771484375,0.125,-2.6875,0.75,-0.109999999403954,-9.68000030517578,1.38999998569489,-0.059999998658896,0,-0.079999998211861
1594154867661,-0.53131103515625,-0.376708984375,0.44244384765625,0.616455078125,-0.0625,-2.4375,0.8125,-0.070000000298023,-9.68000030517578,1.39999997615814,-0.009999999776483,0,-0.079999998211861
1594154867683,-0.5308837890625,-0.376953125,0.44287109375,0.61639404296875,2,-2.5625,-0.375,-0.009999999776483,-9.69999980926514,1.5,0.029999999329448,0,0.009999999776483
1594154867710,-0.5303955078125,-0.37713623046875,0.4432373046875,0.616455078125,2.25,-3.125,-0.5625,-0.059999998658896,-9.76000022888184,1.55999994277954,-0.009999999776483,-0.070000000298023,0.059999998658896
1594154867735,-0.52996826171875,-0.37744140625,0.44378662109375,0.61627197265625,0.375,-2.875,0.8125,-0.109999999403954,-9.77000045776367,1.51999998092651,-0.059999998658896,-0.079999998211861,0.019999999552965
1594154867758,-0.52984619140625,-0.377685546875,0.44415283203125,0.61590576171875,-1,-3.0625,1.375,-0.140000000596046,-9.72000026702881,1.41999995708466,-0.090000003576279,-0.019999999552965,-0.070000000298023
1594154867784,-0.52972412109375,-0.378173828125,0.44464111328125,0.6153564453125,-1.1875,-3.4375,1.0625,-0.079999998211861,-9.71000003814697,1.39999997615814,-0.019999999552965,-0.019999999552965,-0.079999998211861
1594154867810,-0.529541015625,-0.37847900390625,0.44500732421875,0.61505126953125,-0.3125,-3.4375,0.5625,-0.059999998658896,-9.72000026702881,1.4099999666214,0,-0.029999999329448,-0.070000000298023
1594154867836,-0.5291748046875,-0.37896728515625,0.44561767578125,0.6146240234375,-0.1875,-4,0.8125,-0.009999999776483,-9.72000026702881,1.46000003814697,0.029999999329448,-0.029999999329448,-0.029999999329448
1594154867857,-0.5289306640625,-0.37939453125,0.446044921875,0.61431884765625,-0.125,-3.9375,0.75,-0.019999999552965,-9.67000007629395,1.4099999666214,0.019999999552965,0.009999999776483,-0.070000000298023
1594154867883,-0.5284423828125,-0.37969970703125,0.44677734375,0.61395263671875,1,-3.4375,0.9375,-0.100000001490116,-9.76000022888184,1.44000005722046,-0.03999999910593,-0.070000000298023,-0.050000000745058
1594154867911,-0.5281982421875,-0.3800048828125,0.44720458984375,0.6136474609375,-0.5,-3.75,0.9375,-0.079999998211861,-9.72000026702881,1.44000005722046,-0.019999999552965,-0.029999999329448,-0.050000000745058
1594154867939,-0.52801513671875,-0.3804931640625,0.44769287109375,0.6131591796875,-1.5,-3.25,0.625,-0.079999998211861,-9.69999980926514,1.38999998569489,-0.019999999552965,0,-0.090000003576279
1594154867966,-0.52789306640625,-0.380859375,0.44805908203125,0.61279296875,-0.4375,-3.9375,1.3125,-0.059999998658896,-9.68000030517578,1.33000004291534,0,0,-0.159999996423721
1594154867984,-0.52740478515625,-0.381103515625,0.44903564453125,0.61236572265625,1.4375,-4.125,1.875,-0.129999995231628,-9.78999996185303,1.41999995708466,-0.059999998658896,-0.100000001490116,-0.070000000298023
1594154868011,-0.52716064453125,-0.38134765625,0.4495849609375,0.61199951171875,-0.3125,-3.6875,1.625,-0.170000001788139,-9.73999977111816,1.44000005722046,-0.100000001490116,-0.050000000745058,-0.059999998658896
1594154868034,-0.52685546875,-0.38165283203125,0.45013427734375,0.61163330078125,1.1875,-3.1875,0.6875,-0.100000001490116,-9.63000011444092,1.44000005722046,-0.019999999552965,0.050000000745058,-0.050000000745058
1594154868062,-0.52642822265625,-0.38177490234375,0.45068359375,0.611572265625,2.5625,-3.25,0.875,-0.100000001490116,-9.72999954223633,1.53999996185303,-0.029999999329448,-0.03999999910593,0.029999999329448
